time,seconds_elapsed,z,y,x
1758301027665009000,0.0260087890625,-0.2899006454527378,-0.022540917631983754,0.6793205996040255
1758301027674983000,0.03598291015625,-0.3509253152579069,-0.03518003445267677,0.020752938236668704
1758301027684956700,0.045956787109375,-0.11570435449779033,-0.20354045886099337,-0.04952836634404957
1758301027694930700,0.0559306640625,0.2889969746112823,-0.37562194961905476,0.41609935982748864
1758301027704904700,0.06590478515625,0.5244587583899498,-0.6820049433171749,1.1564624571543187
1758301027714878700,0.075878662109375,1.2168097391545771,-0.4557505483448505,1.4069611396104096
1758301027724852700,0.085852783203125,1.964451814508438,0.13993804752230643,1.2867264482066034
1758301027734826800,0.09582666015625,2.014083568161726,0.2698766790777445,1.370883864057064
1758301027744800800,0.10580078125,1.3308335932195186,-0.2344394549936056,1.3940737471170723
1758301027754774800,0.11577490234375,1.062387239205837,-0.47043373821377754,0.7945781601823866
1758301027764748800,0.125748779296875,0.6888964563965797,1.5449720184624194,-0.13039368184655903
1758301027774722800,0.135722900390625,-0.6565349864959716,2.046623901760578,-0.2192120752453804
1758301027784696800,0.14569677734375,-2.207296109753847,1.0415455267071723,0.7701933682493866
1758301027794670800,0.1556708984375,-2.288333055496216,0.8412894963443279,0.6383828053422271
1758301027804644900,0.165644775390625,-1.7192589103102682,0.8327689207583665,0.34867899763584137
1758301027814619000,0.175618896484375,-0.8414192602038383,0.858512433823943,0.37015155538395045
1758301027824593000,0.185593017578125,0.22438626301288603,0.73796414642632,0.5301048745181411
1758301027834567000,0.19556689453125,1.0967770000636576,0.4773316810339689,0.67340691858083
1758301027844541000,0.205541015625,1.2390437827944756,0.27451719835996624,1.0041209281980992
1758301027854515000,0.215514892578125,1.2676982148706912,0.4117459869235754,1.1121895271204412
1758301027864489000,0.225489013671875,1.4815484708219766,0.7300140642046928,0.8067981017429381
1758301027874462700,0.235462646484375,1.727584840106964,0.6402443614304065,0.42777584216110404
1758301027884435700,0.245435791015625,2.1110884828865526,0.24878888286352155,0.31132337270975113
1758301027894409700,0.25540966796875,2.0706085884600878,0.2581377259671688,0.3800115628801286
1758301027904383700,0.2653837890625,1.6218834087073801,0.5773141502648592,0.3501152409840375
1758301027914357800,0.275357666015625,0.6254623873621225,1.0692091941803694,0.24404344190210103
1758301027924331800,0.285331787109375,-0.38774318004548547,1.5638158351421356,-0.18484905626401305
1758301027934305800,0.295305908203125,-0.788255825293064,1.8141607152760029,-0.6959202175535262
1758301027944279600,0.305279541015625,-0.2717044790267944,1.356741356936097,-0.7604759840942918
1758301027954253600,0.315253662109375,1.0201327363222836,0.771946495527029,-0.4408385181561112
1758301027964227600,0.3252275390625,2.559536014741659,0.2664016964435577,0.1686176140397787
1758301027974201600,0.33520166015625,3.568903611421585,-0.26898762128353115,0.8502382342144846
1758301027984175600,0.345175537109375,3.9014848762154575,-0.6077934596806764,1.1581021141201258
1758301027994149600,0.355149658203125,3.5042858855605123,-0.856140443995595,1.1347513414099812
1758301028004123600,0.36512353515625,2.4373791231036184,-0.9932786316663026,0.922497122478485
1758301028014097700,0.37509765625,1.020281204882264,-1.001401732367277,0.8413736674964427
1758301028024071700,0.38507177734375,-0.4338865070611238,-0.9965893636494875,0.5523661714911461
1758301028034045700,0.395045654296875,-1.5743845754295587,-0.9248556683033704,-0.005600450355559587
1758301028044019700,0.405019775390625,-2.4137048175275324,-0.9954624054461717,-0.5374805909179151
1758301028053993500,0.414993408203125,-3.2058255015552044,-1.0448334623366593,-0.7750644814170896
1758301028063967500,0.424967529296875,-3.9102193868130444,-0.9138765936493873,-0.7540738619670272
1758301028073941500,0.43494140625,-4.197870207512379,-0.6913496947675943,-0.576374531327188
1758301028083915500,0.44491552734375,-3.907950272837281,-0.5656242969930172,-0.28662469252198935
1758301028093889500,0.4548896484375,-2.965805031558871,-0.6891156521052122,0.01638926313444972
1758301028103863300,0.46486328125,-0.9223930775821209,-1.2110083593994379,0.13823022069111465
1758301028113837300,0.47483740234375,1.1669552826613188,-1.8866373379439114,0.14856106056943535
1758301028123811300,0.484811279296875,2.028667389309406,-2.2674323062866923,-0.14956731500253082
1758301028133785300,0.494785400390625,2.2243787619799376,-1.0851228026270865,0.23002865281403062
1758301028143759400,0.50475927734375,1.5892559813469647,-0.689699589473009,0.726223001358658
1758301028153732400,0.514732421875,1.0299848527729512,-0.21107903767228126,1.0834165832310914
1758301028163706400,0.524706298828125,1.9727409194260834,-0.4616659098684788,1.0758442482806743
1758301028173680400,0.534680419921875,3.093918201252818,-1.604772114908695,1.2888432942301034
1758301028183654400,0.544654296875,4.494463628602028,-2.3289964897960425,1.0145615120612084
1758301028193628400,0.55462841796875,4.958220957791805,-2.530032272359729,0.6383667309902608
1758301028203602400,0.5646025390625,3.76613707909286,-2.3652742563575506,0.8814787372611462
1758301028213576200,0.574576171875,1.9073387651890514,-1.8055296650528907,1.6144329465709626
1758301028223550200,0.58455029296875,-0.1512947233170271,-1.2903601285338402,1.5417439963266253
1758301028233524200,0.594524169921875,-1.8586650429129599,-0.5457815324038267,0.8756878789000213
1758301028243498200,0.604498291015625,-3.1815877168774604,0.3551724513083696,0.6521279837086796
1758301028253472300,0.61447216796875,-3.2639398368716237,0.7407686824530363,1.1090015447340904
1758301028263446300,0.6244462890625,-2.656221780514717,1.0207043987303972,1.2507397735461592
1758301028273420300,0.634420166015625,-2.406787000963092,1.1605120978713035,1.8158862238943576
1758301028283394300,0.644394287109375,-1.9615642763733863,1.2563783639550208,1.6462641089871526
1758301028293368300,0.654368408203125,-1.0351935273319481,0.5860907464385032,0.011508359225094317
1758301028303342300,0.66434228515625,-0.994070658826828,-0.682010204014182,-1.688902935013175
1758301028313316400,0.67431640625,-1.1587100168853997,-0.7168839489966631,-2.9783687450557945
1758301028323290400,0.684290283203125,-1.1625076556026934,-0.8691331965595483,-2.126222631393373
1758301028333264400,0.694264404296875,-0.5974988601595163,-0.9525134905576705,-0.5976137187108397
1758301028343238400,0.70423828125,0.1457253987520933,-0.44430444070100783,0.8318788400508463
1758301028353212400,0.71421240234375,0.857110165810585,0.3684621409922838,1.165031913383305
1758301028363186400,0.7241865234375,1.4201286642193793,0.8971037380248308,0.5160752531871199
1758301028373160400,0.734160400390625,1.2941028221935034,0.9194248754262924,-0.339479499875009
1758301028383133400,0.744133544921875,1.372851364737749,0.5603191763222217,-0.9512335337497293
1758301028393107500,0.754107421875,0.49474867978096004,1.7520803989380598,-1.7931196808129548
1758301028403081500,0.76408154296875,-0.34338498288094993,2.5486118851453066,-0.48679406751468773
1758301028413055500,0.774055419921875,-0.47224634059369563,2.0178513962626456,1.592585564161092
1758301028423029500,0.784029541015625,0.7305249363362789,-1.8253683379888535,1.9374451496392486
1758301028433003500,0.79400341796875,7.119521624568105,1.89292503991127,-1.2977059612520039
1758301028442977500,0.8039775390625,3.901506503525376,-1.232916239824891,-1.2697912416271864
1758301028452951600,0.81395166015625,2.574148477461934,-1.0620166523277759,-0.5189074078731238
1758301028462925300,0.82392529296875,0.8904220683038234,0.9067115243256092,-1.0147441751517354
1758301028472899300,0.8338994140625,-0.8579588915944099,0.023444588473439214,-1.653971322363615
1758301028482873300,0.843873291015625,-1.884698478835821,0.20242636013925075,-2.133103038556874
1758301028492847400,0.853847412109375,-2.0764409478753802,0.17861469191908835,-1.89365700744763
1758301028502821400,0.8638212890625,-1.5274620807349681,0.24482874706089494,-1.6289985014095902
1758301028512795400,0.87379541015625,-1.51229607578516,0.24906477719545364,-1.7364922230534254
1758301028522769400,0.883769287109375,-2.257976495677233,-0.40683249591886994,-1.9479225583814084
1758301028532743400,0.893743408203125,-3.1779642656832934,0.18792904823124407,-1.598943408755213
1758301028542717400,0.903717529296875,-4.988583362829685,0.5975824467897415,-0.5565843737080693
1758301028552691500,0.91369140625,-4.992857971408963,-0.23653028979301452,-1.5222148277312517
1758301028562665500,0.92366552734375,-3.8745968692898747,-0.6418406907111406,-3.3759096810162066
1758301028572639500,0.933639404296875,-2.205621454539895,0.08304887008666992,-2.297597435186803
1758301028582612200,0.9436123046875,-0.9415063588529825,1.5725070911198853,-1.137767109034583
1758301028592586200,0.953586181640625,-1.3505746509999037,1.1815350121557713,-0.40144181585647165
1758301028602560300,0.963560302734375,-3.0549592327833173,-1.508090440788865,-0.5804414154399186
1758301028612534300,0.9735341796875,-4.306398971292376,-2.828587348911166,-1.6729769054763017
1758301028622508300,0.98350830078125,-5.662933407479525,-3.524478194239735,-2.6653327232092616
1758301028632482300,0.993482421875,-7.619533923965692,-4.508229119104147,-3.5448908676713704
1758301028642456300,1.003456298828125,-8.204728598347305,-6.154832543048262,-3.6809552886307237
1758301028652430300,1.013430419921875,-9.094134183084964,-6.622837592810392,-5.295747862294316
1758301028662404400,1.023404296875,-8.109989874988793,-6.658805562770366,-7.141860297626256
1758301028672378400,1.03337841796875,-5.859750695565342,-8.476925829327106,-8.618689923232793
1758301028682352400,1.043352294921875,-2.2448452114254236,-8.687035729706286,-8.458551383724808
1758301028692326400,1.053326416015625,-0.2880225766211748,-9.80750690909028,-6.666326021403074
1758301028702300400,1.063300537109375,-0.6019225218206644,-12.339376333749293,-3.871300750353932
1758301028712274400,1.0732744140625,-2.2467712110519407,-13.249715400922298,-1.6255460228681564
1758301028722248200,1.083248291015625,-3.6734544114813206,-14.667148250186443,-1.933628806221485
1758301028732222200,1.09322216796875,-4.101579578536748,-15.495240411305426,-3.738626556354761
1758301028742196200,1.1031962890625,-4.430208306312561,-14.991200171566009,-5.01660417317748
1758301028752170200,1.113170166015625,-4.563379928439855,-15.814546014940738,-6.274766497939825
1758301028762144300,1.123144287109375,-4.0976521759599445,-18.11836305529475,-7.895877753230929
1758301028772118300,1.1331181640625,-2.1838059285730123,-20.559926186084745,-8.959803454050421
1758301028782091300,1.14309130859375,0.6161527072250843,-22.71578553858995,-7.127823588967323
1758301028792065300,1.153065185546875,2.535940035098791,-23.322266746628284,-2.4772616361588238
1758301028802039300,1.163039306640625,3.0415818648159503,-23.06842993272543,2.1753864752739664
1758301028812013300,1.173013427734375,3.1519208928883073,-22.061422635436056,6.816200941050052
1758301028821987300,1.1829873046875,3.471020744818449,-19.398660054975746,10.23073232140541
1758301028831961300,1.19296142578125,5.754618003964424,-17.317403231251237,9.621088849943876
1758301028841935400,1.202935302734375,14.300939441078901,-16.933687991547583,8.276009289228917
1758301028851909400,1.212909423828125,16.304230397069453,-17.95359101076722,9.665640523853897
1758301028861883400,1.22288330078125,18.839472513031957,-18.142392750179766,12.42013855420351
1758301028871857400,1.232857421875,18.92018446460366,-17.134451386910676,16.774617373532056
1758301028881831400,1.24283154296875,17.255049943190812,-14.382245266890525,22.99197914572954
1758301028891805400,1.252805419921875,14.190952295184134,-10.418941355621815,28.642278697085377
1758301028901779500,1.262779541015625,10.037598105746508,-6.137397424122691,32.06766581797599
1758301028911753500,1.27275341796875,6.401774921262263,-2.598715932485461,33.380971937811374
1758301028921727500,1.2827275390625,3.7631297139704225,0.7011380983322858,34.17905942128896
1758301028931701500,1.292701416015625,-0.2229623676896095,3.1794016050100327,35.88698328311443
1758301028941675500,1.302675537109375,-5.3428708479970695,3.824949918067455,36.79505908153057
1758301028951649500,1.3126494140625,-9.452981523513794,4.063386333742738,34.7078716987133
1758301028961623600,1.32262353515625,-11.633762551307678,5.1126469648718835,30.135671334958076
1758301028971597300,1.332597412109375,-16.15339335439205,5.319779310745001,22.80385662075281
1758301028981571300,1.3425712890625,-11.09729186808467,6.1292643865495915,19.46158149831295
1758301028991545300,1.35254541015625,-7.176835749417543,4.943015205353499,17.807831125223636
1758301029001519400,1.362519287109375,-8.333335104516149,4.9875166103810065,14.930914921951294
1758301029011492400,1.372492431640625,-7.020058795297145,5.11457354902029,14.624604408967494
1758301029021466400,1.38246630859375,-16.966003868740795,2.358290388819575,5.632309721156955
1758301029031440400,1.3924404296875,-40.90426667072773,-1.619802510780096,-2.433511341759562
1758301029041414100,1.4024140625,-37.20362351580858,-2.6999796736985444,-6.074337449097633
1758301029051388200,1.41238818359375,-22.55736140178442,-4.404303465205431,-7.3800950532495975
1758301029061362200,1.422362060546875,-11.257574784499406,-3.453765074113011,-7.263906714627146
1758301029071336200,1.432336181640625,-7.906052525764704,-0.6612655221492052,-6.720394296199083
1758301029081310200,1.442310302734375,-5.840324110561609,1.028908747974038,-3.3280268168568607
1758301029091284200,1.4522841796875,3.3327503382474184,3.235589356178045,0.40431496013998985
1758301029101258200,1.46225830078125,15.552673194098471,5.140492418652773,1.6448223857462405
1758301029111232300,1.472232177734375,20.240861405467985,1.163718784958124,2.7983067769378422
1758301029121206300,1.482206298828125,22.034656209063527,2.2461919498592615,6.325769539946317
1758301029131180300,1.49218017578125,13.44406425306797,-0.26161913834214207,6.909740810012817
1758301029141154300,1.502154296875,-2.8735613398864865,-3.4226001205205914,3.4128222383499143
1758301029151128300,1.51212841796875,-12.268999898231028,-3.773710729217529,-2.4481863483220336
1758301029161102300,1.522102294921875,-15.368240171289443,-0.9347083692759275,-7.023334455966949
1758301029171076400,1.532076416015625,-16.537801837056875,-0.8807122829332947,-7.179192541676759
1758301029181050400,1.54205029296875,-16.385338654482364,-1.4634855753868818,-2.5229028588712215
1758301029191024400,1.5520244140625,-13.950887986046075,-0.5023047942489385,2.313877831119299
1758301029200998400,1.561998291015625,-10.38273139359951,0.655706134456396,5.882650509637594
1758301029210972400,1.571972412109375,-7.322748195174336,1.1592775876402854,8.546663382419943
1758301029220946400,1.581946533203125,-3.880038183560967,1.1073238207802176,10.446835909241438
1758301029230920200,1.591920166015625,-0.9484984096974134,1.0208359161555767,10.835226155018805
1758301029240894200,1.601894287109375,-0.16622545820623635,0.43178105921447274,9.383526879015564
1758301029250868200,1.6118681640625,-0.8771636505410074,-0.6914008404329419,7.182563479414582
1758301029260842200,1.62184228515625,-2.2592992687135935,-1.8601412529453634,4.432542886739969
1758301029270815500,1.6318154296875,-3.7311616273015735,-2.6395547233521937,1.9143641337811945
1758301029280789200,1.641789306640625,-4.2358270132020115,-3.4131969168812035,0.42131461025774475
1758301029290763300,1.65176318359375,-3.443451477630436,-3.767698337060213,-1.0840531275689602
1758301029300737300,1.6617373046875,10.240748688507079,-9.72781494821608,-14.323447040963172
1758301029310711300,1.671711181640625,2.9636390856966375,-5.822657520967722,-6.711588473930955
1758301029320685300,1.681685302734375,-3.5922023616835475,-4.876759649157524,-0.9936679232448339
1758301029330659300,1.691659423828125,-5.141591319805383,-4.130763587445021,-3.6722201935112473
1758301029340633300,1.70163330078125,-3.141111914104223,-4.35392264675051,-8.35437087828219
1758301029350607400,1.711607421875,-0.8644291105218231,-4.771498947262764,-9.307646585384012
1758301029360581400,1.721581298828125,0.9357849124662577,-5.187527141550183,-7.534749608388543
1758301029370555400,1.731555419921875,2.275788192830235,-5.388977350133657,-5.323768672642111
1758301029380529400,1.741529296875,2.1014152301341293,-5.085899243199825,-4.220821459510923
1758301029390503400,1.75150341796875,0.6775083625502883,-4.236498336592317,-4.493664002656937
1758301029400477400,1.7614775390625,-0.8529829298127443,-3.469502741470933,-4.846083940386772
1758301029410451500,1.771451416015625,-2.477593644592166,-2.688288066861033,-4.579798563799262
1758301029420425500,1.781425537109375,-4.356450411662459,-1.6253724198669195,-3.9300200658261772
1758301029430399500,1.7913994140625,-5.2590387185782195,-1.3242097911655901,-3.5204385634601114
1758301029440373500,1.80137353515625,-4.155339225775003,-1.1786522232610732,-3.3188650207579133
1758301029450347500,1.811347412109375,-1.8038965108931064,-0.4608036670159548,-1.2239105110704898
1758301029460321500,1.821321533203125,0.9659054715722799,0.6152544432111084,3.921978798189759
1758301029470295600,1.831295654296875,2.2048019548505544,0.6563428249247372,8.463798636728525
1758301029480269300,1.841269287109375,2.2314345257103443,0.8760963135704397,8.33362970354855
1758301029490243000,1.8512431640625,1.5538719487547874,0.1670392588071525,4.89254466278851
1758301029500217000,1.861217041015625,0.5427683220624924,-0.5710860695302487,1.414746971181035
1758301029510191000,1.871191162109375,-0.8946972614049911,-0.5951559502951801,0.8373656008988618
1758301029520165000,1.8811650390625,-4.021277961331606,0.06845175106599927,1.896649613392353
1758301029530139100,1.89113916015625,-5.375220042937993,0.45033802177682514,3.630336277505755
1758301029540113200,1.901113037109375,-2.7501556172311306,0.5163672218710184,3.6055630707770585
1758301029550087200,1.911087158203125,8.082370046657323,0.5508559130586683,3.228582692286372
1758301029560061200,1.921061279296875,-0.5430530207553879,-0.9678899233877658,1.3264321433901787
1758301029570035200,1.93103515625,-1.4706518137544393,0.4417749222233891,-0.3615840719163418
1758301029580009200,1.94100927734375,0.7000824517995119,0.38474633631706234,-1.5304372971534728
1758301029589983200,1.950983154296875,1.6116326483279466,-0.5827569258406758,-1.6863725397527216
1758301029599957200,1.960957275390625,1.94801739705801,-0.6985407753154635,-2.3477374306231735
1758301029609931300,1.97093115234375,2.749479325404763,-0.8931038547337055,-2.8720991583794353
1758301029619905300,1.9809052734375,2.3709587317347527,-0.5460515815168618,-1.7643039206951856
1758301029629879300,1.99087939453125,1.7713269511997698,-0.037520167838037015,-0.2705325126379728
1758301029639853300,2.000853271484375,1.6801158174455164,-0.08417232115864753,0.9575713584691286
1758301029649827300,2.010827392578125,1.6338228528261183,-0.04595189609676599,2.3428490740597248
1758301029659801300,2.02080126953125,1.5573352409511805,-0.24570991380959747,3.1483401117920873
1758301029669775400,2.030775390625,1.930105892792344,-0.9073597591012715,2.6827567362189293
1758301029679749400,2.040749267578125,1.8969898051321505,-1.2017957098960876,1.505479381507635
1758301029689723100,2.05072314453125,1.8036352296084164,-1.2997715154796838,-0.003354571124911308
1758301029699697200,2.060697265625,1.6587813529938458,-0.6825394885852932,-0.7201882512390613
1758301029709671200,2.070671142578125,1.4180816685616968,-0.03898965586870908,-0.7095809325069189
1758301029719645200,2.080645263671875,1.3098247074604035,0.6112956225827336,-0.7651976057887077
1758301029729619200,2.090619140625,1.0570306806087493,1.7270467877075075,-1.0580483332186936
1758301029739593200,2.10059326171875,-0.5993658596077933,2.221294532229006,-1.1585258924901485
1758301029749567200,2.110567138671875,-2.7305519220948216,2.172038041628897,-0.9882155030578375
1758301029759541200,2.120541259765625,-3.2292899637728927,1.8817025118902324,0.766948248848319
1758301029769515300,2.130515380859375,-0.7931558722943067,2.970816722241044,2.2697113571345806
1758301029779489300,2.1404892578125,2.6790263175189493,3.3407214632570743,3.7219133219629525
1758301029789463300,2.15046337890625,2.7963381072133777,2.20342102188617,3.115596949097514
1758301029799437300,2.160437255859375,0.9047861092209816,0.8915116171061992,0.7592161932915449
1758301029809411300,2.170411376953125,-0.5115455008029938,0.6664210052162408,0.24058979431688785
1758301029819385300,2.18038525390625,-0.6999597022026777,0.3401280269116163,0.46753626320660113
1758301029829359400,2.190359375,0.25972587194144725,0.2219666346505284,-0.11454349402487277
1758301029839333400,2.20033349609375,1.2185510298639535,0.39486177987903354,-0.7093231583535671
1758301029849307400,2.210307373046875,1.333853817823529,1.015609413678944,-1.4211620989203453
1758301029859281400,2.220281494140625,-1.4843857400745153,1.507937588314712,-2.156284299919009
1758301029869255400,2.23025537109375,-1.8786720581531524,1.7120733827203511,-2.3620704918801785
1758301029879229200,2.240229248046875,-1.1662153510142117,1.3210869829699396,-2.88605929467082
1758301029889203200,2.250203125,2.2421669321268793,1.575471201622486,-6.241507786938548
1758301029899177200,2.26017724609375,3.065773472264409,0.7306500240206718,-8.357899052408337
1758301029909151200,2.270151123046875,1.769215658134222,1.1062146904945374,-11.391146219599246
1758301029919125200,2.280125244140625,-0.4002297366529703,0.4877677348524332,-11.944480359339714
1758301029929099300,2.290099365234375,-2.190195921871066,0.03265080823600292,-8.769468513721227
1758301029939073300,2.3000732421875,0.3297248524494469,0.3462415413558483,1.5640882223427295
1758301029949047300,2.31004736328125,1.8420599450707436,2.3047820859938857,8.115538156765698
1758301029959021300,2.320021240234375,0.9224095903255045,2.13304487862885,8.607494575479626
1758301029968995300,2.329995361328125,-1.2231686797272414,1.1409481502234935,7.823827831542491
1758301029978969300,2.33996923828125,-1.4984399843901395,1.1726152081191539,5.716462168571352
1758301029988943400,2.349943359375,-2.567655023789406,-0.24793431186079978,3.434518521851301
1758301029998917400,2.35991748046875,-1.7816554529905317,-0.7115414189249276,0.9361147289425135
1758301030008891400,2.369891357421875,-1.1166809933207928,0.9937269599556923,0.10871581078469753
1758301030018865400,2.379865478515625,-2.3601421541661023,2.9700439843028783,1.7845453292131424
1758301030028839400,2.38983935546875,-4.515306510144472,3.4461458312809463,2.4068203187108037
1758301030038813400,2.3998134765625,-4.311132429555058,3.596298398825526,4.475715088990331
1758301030048787500,2.409787353515625,-3.1500510073632,3.3972616811245677,5.971383270579576
1758301030058761500,2.419761474609375,0.5319231029212474,1.8513228634566068,2.062755536872148
1758301030068736800,2.42973681640625,3.8457214879393575,-0.4809276596993208,-1.6621721644759178
1758301030078710800,2.439710693359375,4.792313771754503,-1.3490695071339607,-2.678693140041828
1758301030088684800,2.449684814453125,3.1040725155204534,-1.2612474312961102,-1.4994599750876425
1758301030098658800,2.459658935546875,-0.12509426026418805,-0.6010609365552664,0.39726328806281086
1758301030108632800,2.4696328125,-3.43752296436429,-0.7091939790159464,3.5249019726097583
1758301030118606800,2.47960693359375,-3.116747288176417,-0.6106652157247067,4.349524996313453
1758301030128580600,2.48958056640625,-1.0480798969119787,-1.1390104601591824,2.7223130860596894
1758301030138554600,2.4995546875,0.349669031586498,-2.055328017219901,0.8364555003166199
1758301030148528600,2.509528564453125,1.0066654981143772,-2.832395509022474,0.5029027601420879
1758301030158502700,2.519502685546875,1.2414777319431305,-2.4874545288711785,2.108378054884076
1758301030168476700,2.5294765625,0.6438727810606361,-1.9478841260671615,3.1359915023505684
1758301030178450700,2.53945068359375,-0.967442910272628,-2.3237568355768916,3.6648254070848223
1758301030188424700,2.5494248046875,-1.0051035094946623,-2.4826807385981082,2.7886960680276154
1758301030198398500,2.5593984375,-0.0855519389487803,-2.8643250172466037,1.101356729069352
1758301030208372500,2.56937255859375,0.9542658871829509,-2.8523721291244026,-0.005232055434584618
1758301030218346500,2.579346435546875,1.5197028449103236,-2.468396192657947,-0.21715631175935268
1758301030228320500,2.589320556640625,2.0491706636339426,-1.7081208457022905,0.009240122032165527
1758301030238294500,2.59929443359375,2.976055207416415,-0.8254951303631067,-1.2545505640059709
1758301030248268500,2.6092685546875,3.7801726187080145,-1.1958189735740423,-4.7347161537885665
1758301030258242600,2.61924267578125,8.945957884049415,-1.4995254415392876,-20.50186211965084
1758301030268216600,2.629216552734375,-2.6153265832856296,-6.059207099983095,-28.568046755182742
1758301030278190600,2.639190673828125,-14.224423187631368,-2.113181071251631,-1.448245920678973
1758301030288164600,2.64916455078125,1.1830573994174598,7.894293114387988,6.33550007584393
1758301030298138600,2.659138671875,0.5299807366818189,6.687378746303915,15.11382117358446
1758301030308112600,2.669112548828125,-5.153896674627066,4.546085094767808,14.270573528909683
1758301030318086700,2.679086669921875,-4.412213799938559,0.11082418124079704,4.760160976168513
1758301030328060700,2.689060791015625,-1.234300095398724,-4.543935223257542,-0.28872692549824713
1758301030338034700,2.69903466796875,-0.4104568238958716,-5.765763667356968,-0.07314414666593075
1758301030348008700,2.7090087890625,-1.7299156211420892,-3.8833044918805357,0.2562655023545027
1758301030357982700,2.718982666015625,-2.249903956119716,-1.3746534457236528,0.6735621091425419
1758301030367956700,2.728956787109375,-2.031651665817201,-0.9478682951003312,0.7201122633934021
1758301030377931500,2.738931640625,-1.6283420833274722,-2.116940716046095,-0.17732582115232942
1758301030387905500,2.748905517578125,0.6780735952176153,-2.9854671788841483,-0.7056050146132707
1758301030397879600,2.758879638671875,3.2630002179339526,-2.579631292787194,-0.06754384244084358
1758301030407853600,2.768853515625,5.361216652026772,-1.7816864326506852,0.9963964714258908
1758301030417827600,2.77882763671875,3.1454452671334145,-2.0245845039099453,2.707706468558311
1758301030427801600,2.788801513671875,-0.15353987189531326,-2.2588252214610574,3.4562861170232293
1758301030437775600,2.798775634765625,-0.5104860548779369,-1.4106781143069267,4.246285571113228
1758301030447749600,2.80874951171875,-0.05901362224370241,-1.3045312772274016,5.691069368639588
1758301030457723600,2.8187236328125,1.5678838152334094,-1.025540732845664,3.812924549230933
1758301030467697700,2.82869775390625,2.6027131854280827,-1.0523907458484172,2.9039924262464045
1758301030477671700,2.838671630859375,-0.7217422026827931,-0.16253274116814134,2.426667759475112
1758301030487645700,2.848645751953125,-3.41728798558712,1.0162427431464194,0.9115314918279648
1758301030497619700,2.85861962890625,-4.861447513735294,1.6045044038832186,-0.9265794233560561
1758301030507593700,2.86859375,-2.035636936061084,1.3643120844513177,-6.606753303971886
1758301030517567700,2.878567626953125,-1.689120669417083,0.8324176231026649,-5.451743310648203
1758301030527541800,2.888541748046875,-3.9324876249834895,3.162462745168805,1.3924796097934244
1758301030537515500,2.898515625,-6.690861912244558,3.3299574926584956,2.437368601709604
1758301030547489500,2.908489501953125,-4.689890631373227,0.03074935852885246,-1.6775661329627036
1758301030557463600,2.918463623046875,0.47374651602357626,-5.7146969124644995,-6.564574204412103
1758301030567437600,2.9284375,2.53018804744333,-8.358205341878532,-8.625419523748755
1758301030577411600,2.93841162109375,2.495887133912742,-9.741886143666505,-9.911921223288774
1758301030587385600,2.948385498046875,2.0892910770982502,-10.47214219993353,-11.289745700263977
1758301030597360600,2.958360595703125,1.514455884167552,-11.425927610123157,-13.267095574790238
1758301030607334700,2.968334716796875,1.5299208720639348,-12.515116347014903,-15.074218646514415
1758301030617308700,2.97830859375,1.1210825892806053,-13.17917763736248,-14.746986926054953
1758301030627282700,2.98828271484375,-1.659391009324789,-13.777669600212572,-13.786002544271945
1758301030637256700,2.998256591796875,-5.545376118591427,-13.036346206486224,-11.439998221051692
1758301030647230700,3.008230712890625,-10.539010335069895,-10.54343867290616,-8.364088554698228
1758301030657204700,3.018204833984375,-17.139254987800122,-6.976455800414085,-5.948721356916427
1758301030667178800,3.0281787109375,-23.33467030112743,-4.136480796048045,-4.003264750257134
1758301030677152500,3.038152587890625,-25.443087518978118,-2.760649538716674,-2.4838287395894527
1758301030687126500,3.04812646484375,-23.455381085610387,-2.9666099182009695,-1.657220095026493
1758301030697100500,3.0581005859375,-20.579234113144874,-5.47204024874568,0.6883472980812192
1758301030707074600,3.068074462890625,-17.2160915592432,-7.185610592025518,3.976733593945205
1758301030717048600,3.078048583984375,-12.367069811838865,-6.914670083108544,7.497358912149071
1758301030727022600,3.088022705078125,-7.703567128914594,-5.666897634935379,9.831725989067554
1758301030736996600,3.09799658203125,-3.7985850582331415,-4.318146107709407,10.662158575832843
1758301030746970600,3.107970703125,-1.4137795874536037,-2.521829092159867,10.32715505232811
1758301030756944600,3.117944580078125,-1.1874497891575098,-0.8534750241786241,9.999646268492937
1758301030766918700,3.127918701171875,-3.9107334738150237,0.16992168237566946,9.764366271021961
1758301030776892700,3.137892578125,-7.257099372699856,0.9138467830330133,9.19865663383305
1758301030786867700,3.14786767578125,-9.22374255977273,1.5181401256382465,9.253702229228615
1758301030796841700,3.157841796875,-9.23228184005916,1.322595341706276,10.38580714778304
1758301030806815700,3.167815673828125,-7.267514968252182,0.9534346970558166,13.46068104134798
1758301030816789500,3.17778955078125,-4.721666994862258,1.5597914019316435,18.04225830525756
1758301030826763500,3.187763427734375,-2.1405824345268307,2.0253402907133102,22.110199818086624
1758301030836737500,3.197737548828125,0.002755363122746348,1.7438164284616708,24.456732549095154
1758301030846711600,3.207711669921875,1.7771143024295568,2.034611976927519,23.9273942019701
1758301030856685600,3.217685546875,3.855763574004173,1.5526719253152608,22.58621340225935
1758301030866659600,3.22765966796875,5.971892973667383,1.4763210915625093,21.287749462246893
1758301030876633600,3.237633544921875,7.590417719596624,1.6778069559812545,20.665119083440302
1758301030886607600,3.247607666015625,8.269662550550699,1.6419827784061432,20.15907510266304
1758301030896581600,3.25758154296875,8.445845631408691,1.1463058778643607,19.150807576179503
1758301030906555600,3.2675556640625,8.6397163446486,0.49964288156330583,17.95562631598711
1758301030916529700,3.27752978515625,8.638082021445035,-0.22197511021792887,16.906622289967537
1758301030926503700,3.287503662109375,8.785365171033144,-1.1166934144109486,15.397925699979066
1758301030936477700,3.297477783203125,9.681072486263513,-2.0587083073079584,14.036032951629162
1758301030946452700,3.30745263671875,11.501749451565741,-2.9178900186955925,13.472511764395236
1758301030956426500,3.317426513671875,13.529812445241213,-3.610447920209169,13.035399281024931
1758301030966400500,3.327400390625,15.2252778075099,-4.3490567942798135,12.443838578742742
1758301030976374500,3.33737451171875,15.860782865458726,-5.163410352903604,11.40777469831705
1758301030986348500,3.3473486328125,15.618261226296424,-5.67191166370511,9.63359644933939
1758301030996322600,3.357322509765625,14.75751182720065,-5.567450587755442,7.443641935008764
1758301031006296600,3.367296630859375,13.48330320752263,-5.321115527784824,5.444312283864617
1758301031016270600,3.3772705078125,12.57873804757595,-5.449800944408774,4.095551988810301
1758301031026244600,3.38724462890625,12.77325524202585,-5.503127460926771,3.0392034452468155
1758301031036218600,3.397218505859375,13.631452618551254,-5.995668986052275,2.350879235780239
1758301031046192600,3.407192626953125,14.782025506210326,-6.784523361760377,1.6235674162715672
1758301031056167200,3.417167236328125,15.725759477984905,-7.498557766544819,0.9527128125220536
1758301031066141200,3.42714111328125,15.901923854142426,-8.356445930990576,0.19472353067696094
1758301031076115200,3.437115234375,15.353224972987174,-8.903820870065688,-0.7203273674488068
1758301031086089200,3.447089111328125,14.384983167421817,-8.872677543783187,-1.753984186732769
1758301031096063200,3.457063232421875,12.684232558226585,-8.519987556940317,-2.409101123124361
1758301031106038000,3.4670380859375,10.28560022214651,-8.32833042809665,-3.0445167492240666
1758301031116012000,3.477011962890625,8.189363271433114,-7.735928598815202,-4.185923749130964
1758301031125986000,3.486986083984375,6.814046393364667,-7.066331301650404,-5.4284501133441925
1758301031135960000,3.4969599609375,5.9029474477350705,-6.487055495923757,-6.276680222606658
1758301031145934000,3.50693408203125,5.713839418852329,-5.97971212298572,-6.89015289696753
1758301031155908000,3.516908203125,6.157749891799688,-5.836425934079289,-7.217924715653061
1758301031165882000,3.526882080078125,6.668607994860411,-5.683657046556473,-7.356276370766759
1758301031175856000,3.536856201171875,6.435526384216547,-5.983160217612982,-7.009042311242222
1758301031185830100,3.546830078125,5.563121618640422,-6.649897449171543,-6.943653016486763
1758301031195804200,3.55680419921875,5.2216778329551214,-6.81195380499959,-7.584478392675519
1758301031205778200,3.566778076171875,5.150002589797974,-6.910526407432556,-7.885176326474547
1758301031215752200,3.576752197265625,4.740319380623102,-6.99917967339754,-7.737524928095937
1758301031225726200,3.586726318359375,4.08376568942666,-6.733917794638872,-7.019873501858115
1758301031235701000,3.596700927734375,3.253482740265131,-5.999545535224676,-6.2355737207144495
1758301031245675000,3.606675048828125,2.1721289347827435,-5.465576605689526,-6.211672620645165
1758301031255649000,3.61664892578125,0.8413467794895172,-5.327440054631233,-6.652279960393905
1758301031265623000,3.626623046875,-15.740199506747722,-9.179245246398448,-8.517299925291537
1758301031275597000,3.63659716796875,-32.6010817898035,-6.123987907451391,-18.400218341457844
1758301031285571000,3.646571044921875,-1.225432021549344,2.230811425375938,-8.774656145492196
1758301031295545000,3.656545166015625,-5.46472846442759,-3.136843443004787,-0.8946668662667274
1758301031305519000,3.66651904296875,-2.481793434369564,-1.2433332966819406,-0.8780155911952257
1758301031315493000,3.6764931640625,-4.878913027799129,-4.047341500131786,-2.213234267631173
1758301031325467100,3.686467041015625,-3.908832316368818,-4.024854066252709,-5.575923232546448
1758301031335441200,3.696441162109375,-3.893713073170185,-5.827546462053061,-6.316916955927014
1758301031345415200,3.706415283203125,-3.332789501214027,-6.212157189291715,-3.6147330501824615
1758301031355389200,3.71638916015625,-1.2410871251903473,-5.042711258858442,-0.021442016479372977
1758301031365363200,3.72636328125,1.9950245012961327,-3.170593444654345,2.7192969531089064
1758301031375338000,3.736337890625,7.193493454229832,-2.5380092425882816,3.780631468391418
1758301031385312000,3.74631201171875,7.8835729829311365,-2.122781843289733,6.021088673990964
1758301031395286000,3.7562861328125,2.253419563025236,-0.6771592568516731,6.666198011109232
1758301031405260000,3.766260009765625,7.558820804327726,-0.27400866431593895,7.492759309399127
1758301031415234000,3.776234130859375,6.433015278178453,0.20185645129680632,9.423084397900103
1758301031425208000,3.7862080078125,3.5031285322189327,-0.9802204126507044,7.6373957438707345
1758301031435182000,3.79618212890625,0.8482990828454494,-1.4609610253453253,4.727831070449948
1758301031445156000,3.806156005859375,-0.3424234443724155,-1.2842840234905482,2.9779730237364768
1758301031455130000,3.816130126953125,-2.6065257294535638,-1.912464437639713,2.7829531404614447
1758301031465104100,3.826104248046875,-3.707243576097488,-0.46051966244280335,1.3764835837602614
1758301031475078100,3.836078125,-3.2856758678615092,0.5922878475129604,-0.5089852949261665
1758301031485052200,3.84605224609375,-8.2486244386971,0.9013497050315141,-3.2745804733514783
1758301031495026200,3.856026123046875,-13.425739491826295,1.7751935635000466,-6.204964647439122
1758301031505001200,3.866001220703125,-7.155906358635425,2.119178265839815,-5.358756983914971
1758301031514975000,3.87597509765625,-2.87302328748703,1.2776900320529938,-1.3557424090266228
1758301031524949000,3.885948974609375,0.31375732185840605,2.2260288672745228,2.885000725528598
1758301031534923000,3.895923095703125,1.8516634935878216,3.0023002402633425,4.686159335890412
1758301031544897000,3.90589697265625,1.1924081422172486,2.885650713869929,5.301525861173868
1758301031554871000,3.91587109375,-0.2932335162024945,2.2930898946344853,5.785967081952094
1758301031564845000,3.925844970703125,-0.8615957137268037,0.8467547760128974,6.581542874869704
1758301031574819000,3.935819091796875,-0.39900282520651814,-0.5615940185636281,6.522222086372971
1758301031584793000,3.94579296875,0.8560277043361216,-1.403608906573057,5.073963306212425
1758301031594767000,3.95576708984375,2.1703087336182594,-1.786779956397414,3.6138784791797396
1758301031604741000,3.9657412109375,3.500225796514749,-2.384898409759998,2.141036461904645
1758301031614715100,3.975715087890625,6.054719725435972,-2.8000036439836022,1.2057774730086326
1758301031625937200,3.986937255859375,8.046563404738903,-2.152263373839855,0.39361061077415943
1758301031636534300,3.9975341796875,9.55345382208824,-0.9742559512883424,-0.14603285726606846
1758301031646508300,4.00750830078125,3.7778795393347737,-1.2606892128914593,-4.269940002945066
1758301031656482300,4.017482421875,-4.1554923705101015,1.1111112303644417,-6.9217638407617805
1758301031666456300,4.027456298828125,-7.403342657846212,1.8316601316094396,-10.533940192198752
1758301031676430300,4.037430419921875,-6.20390374020934,0.11632277865707874,-13.313554543626308
1758301031686404400,4.047404296875,0.8152784183837473,-0.3684218089818954,-11.076665259641409
1758301031696378000,4.057378173828125,2.5807658497750756,0.7758598695784806,-6.871548734262586
1758301031706352000,4.06735205078125,1.2968331239402293,0.9994885922223329,-7.13191290410757
1758301031716326100,4.077326171875,-0.32702472664527593,1.3102601762682198,-7.757707884424924
1758301031726300200,4.087300048828125,0.38252997544184325,1.7903022853046655,-6.245347511231899
1758301031736274200,4.097274169921875,2.091228767162561,2.6454192314714193,-1.1822539740800857
1758301031746249200,4.107249267578125,1.9223896193265915,4.193910656231641,11.336881545448303
1758301031756223200,4.11722314453125,1.8531997632443904,2.2402871097296475,9.437240933546423
1758301031766197200,4.127197265625,0.8126174555461854,0.13140227436721325,3.4658857200175524
1758301031776171300,4.137171142578125,0.23263145572356878,-2.237837378489971,1.1639981864213942
1758301031786145300,4.147145263671875,-0.8235761449992656,-3.071133537992835,2.139618411800265
1758301031796119300,4.157119384765625,0.3545323998391628,-2.6667490197479724,2.719913623702526
1758301031806093300,4.16709326171875,0.40787820557951926,-3.1940777806162832,2.4800819542765615
1758301031816067300,4.1770673828125,-0.7473521524965763,-2.9897330196350813,0.8359399520099162
1758301031826041300,4.187041259765625,-1.0925123283565044,-1.7562427793145179,-1.1436544865727425
1758301031836015000,4.19701513671875,0.2712250980120152,-0.6058908409297465,-2.6045249110251665
1758301031845989000,4.206989013671875,1.5931670173108576,0.3776952487617731,-2.8497207378327847
1758301031855964200,4.216964111328125,1.248418344861269,0.9576607903182506,-3.0010043552339076
1758301031865938200,4.226938232421875,0.39945758323669434,0.5152092840075493,-4.0258144357174634
1758301031875912200,4.236912109375,-0.5261246457755565,-0.5848112280219793,-4.800142857944965
1758301031885886200,4.24688623046875,-0.36276597517728804,-1.373261699104309,-3.847277485209703
1758301031895860200,4.256860107421875,0.5402876111626624,-1.4304665183603762,-1.4224153138518332
1758301031905834200,4.266834228515625,0.8971803103923797,-1.1781681660711765,0.9645447046130895
1758301031915808300,4.276808349609375,-0.36835984966158863,-0.5881459254026412,3.31771468167901
1758301031925782300,4.2867822265625,-0.9534966563761234,0.26047990517914293,4.596816334095597
1758301031935756300,4.29675634765625,0.7414543266296386,0.19599954196214675,4.946756729969382
1758301031945730300,4.306730224609375,-0.02521277632289566,0.9523603458225727,2.5284622465640303
1758301031955705000,4.316705078125,-1.8940671956837176,1.3545681045502422,0.7475789469897747
1758301031965679000,4.32667919921875,-0.8227531381785869,0.535997220492363,-0.6148860482901335
1758301031976277000,4.337277099609375,-0.9921031581461429,0.44065059436857695,-1.6065671816319227
1758301031986251000,4.3472509765625,-1.4075614435911177,0.4175438595473766,-1.2715975603967904
1758301031996225000,4.35722509765625,-1.2930091817378997,0.34059505990147587,-0.6785176857233047
1758301032006199000,4.367198974609375,-1.625115814757347,0.8168716789245605,-0.2677490193992853
1758301032016173000,4.377173095703125,-1.9064415240883825,1.1665355959445238,-0.2822358099132776
1758301032026147000,4.38714697265625,-0.9647498717963695,0.24908640450537203,-0.4277747461825609
1758301032036121000,4.39712109375,-0.16907646372318266,-0.8791402113109826,-0.5614625011384486
1758301032046095000,4.40709521484375,0.35521044523119927,-1.1449053634166717,0.09487550148069858
1758301032056068600,4.417068603515625,0.731496411716938,-2.655685773941874,-0.05815525184869766
1758301032066042600,4.427042724609375,1.4071242212176323,-3.9646325295239686,0.03025017683506012
1758301032076017700,4.437017578125,1.4135691595733164,-4.898162502670288,0.08400164076685905
1758301032085991700,4.44699169921875,1.6608113975167274,-5.125145211917162,-0.2718520708039403
1758301032095965700,4.456965576171875,0.970105261349678,-4.551476140156388,0.09010638738274573
1758301032105939700,4.466939697265625,0.4020294795513153,-3.361444517812133,0.6442053740158676
1758301032115913700,4.476913818359375,0.5570797560095787,-2.145592810034752,1.1160995401710272
1758301032125887700,4.4868876953125,1.1349836888611315,-1.4826426957994698,1.4182497186049818
1758301032135861800,4.49686181640625,1.472145851704478,-0.3852016788691282,1.5001041182100772
1758301032145835500,4.50683544921875,1.843494946309924,-0.4573211586624384,1.9168968671292066
1758301032155809500,4.5168095703125,1.8972370578914879,-0.8836720095217228,2.6126468426823615
1758301032165784600,4.52678466796875,1.8208119898587465,-1.0143184970855712,2.142332639195025
1758301032175758600,4.536758544921875,1.903561000216007,-1.1936410450130701,1.9258505734354257
1758301032185732600,4.546732666015625,1.491447349023819,-0.5633060831785202,1.7792425466299056
1758301032195706600,4.55670654296875,0.15399711414352057,-0.9813713362514972,1.559434259057045
1758301032205680600,4.5666806640625,-0.9353624492704867,0.7375000360459089,1.3400836521238089
1758301032215654700,4.576654541015625,-1.7389321635514496,1.7015367911368608,1.1432108344584704
1758301032225628700,4.586628662109375,-0.6386987394236028,2.2754519466131926,0.79369070982337
1758301032235602700,4.596602783203125,0.7651718868255615,2.8917671509236094,0.5141144745081663
1758301032245577500,4.606577392578125,1.333331109123677,3.1041981877267357,0.1977320648431778
1758301032255551500,4.616551513671875,2.01978265658617,2.054272370687127,0.12494973722696304
1758301032265525500,4.626525390625,2.5132027181118723,1.4601286661744117,0.7378425658732652
1758301032275499500,4.63649951171875,2.364866844600439,1.4769658192068338,1.5599334407508372
1758301032285473500,4.6464736328125,2.53472949026525,1.71056473172307,2.3421149145662783
1758301032295447600,4.656447509765625,2.9633178909182547,3.884298763614893,1.9554057537436484
1758301032305421600,4.666421630859375,0.7303583475977182,5.396229513218999,0.28545068030655385
1758301032315395600,4.6763955078125,-1.8629156860947609,4.7695735321581365,-3.3598762455821034
1758301032325370600,4.68637060546875,-3.416478422769904,3.2013936565876007,-2.4391470095589756
1758301032335344600,4.6963447265625,-3.3847184258937832,1.397863056397438,-1.2362103129342197
1758301032345318700,4.706318603515625,-2.3227637328863144,-0.2336076803445816,-0.032468729667365546
1758301032355292700,4.716292724609375,-0.6391559816718101,-1.0175000497311353,0.3272895881265402
1758301032365266700,4.7262666015625,0.8380600129038095,-3.38159123378396,2.441083822840452
1758301032375240400,4.736240478515625,0.6138590433299541,2.104894888943434,-3.3836563496202228
1758301032385214500,4.74621435546875,1.109292782765627,1.7093220381855965,0.293154678812623
1758301032395188500,4.7561884765625,1.4513199212968348,1.5582190380483865,1.3465022869944572
1758301032405163500,4.76616357421875,0.9253355607748031,2.4189561621844766,-1.2077402975142002
1758301032415137500,4.776137451171875,1.0718155772864817,3.0055028356969355,-1.5869453663170336
1758301032425111600,4.786111572265625,-0.5073603240728378,3.3783190802454945,-2.6108681425720452
1758301032435085600,4.79608544921875,-0.28626375025510786,3.4441596258997915,-0.560214254643023
1758301032445059600,4.8060595703125,-1.0684230122387408,2.4492864185184238,-0.2864309235155582
1758301032455033600,4.81603369140625,-1.670562391680479,1.6294003602087497,-0.7962170134305954
1758301032465007600,4.826007568359375,-0.6509259144425392,1.1647650791406632,-0.6113447224214673
1758301032474981600,4.835981689453125,-0.6890541311763226,1.0154933860838413,0.7418333890751003
1758301032484956400,4.845956298828125,-0.6108019938468933,-0.35938510056734085,0.8594625741556287
1758301032494930400,4.855930419921875,-0.9755272863984107,-0.05846037227511405,-0.7552922978460789
1758301032504904400,4.865904541015625,0.1989418790243566,2.5978543472200633,-2.205039270737767
1758301032514878500,4.87587841796875,-0.2864962438367307,4.108348926541209,-1.43272540320307
1758301032524852500,4.8858525390625,0.07264671853780746,4.017784273996949,-2.013402015638351
1758301032534826500,4.895826416015625,-0.03989829514622688,2.496912677568197,1.1675602628171444
1758301032544800500,4.905800537109375,-1.4943348871588706,1.6989245628118514,2.7538024493008852
1758301032554775600,4.915775634765625,-1.61675481364727,-1.5686691203922032,1.9667296963125467
1758301032564749600,4.92574951171875,-1.0748749648571014,-4.926634563916921,2.501470779263973
1758301032574723600,4.9357236328125,-0.31599837878346443,-2.9111013814687725,4.944180742001533
1758301032584697600,4.945697509765625,0.5720294878602028,-1.044899513310194,6.945719885888695
1758301032594671400,4.95567138671875,-1.098248972312361,-2.2235446492433546,3.2310663257956502
1758301032604645400,4.965645263671875,-0.3303728680294007,-3.202349349877238,0.6916830183751881
1758301032614619400,4.975619384765625,-0.08159560253843665,-4.774101238715648,0.2049792594924569
1758301032624594400,4.985594482421875,-0.06807210409864783,-4.439896172112226,1.482980987843126
1758301032634568400,4.995568359375,-0.3056207771539688,-4.398625419569015,2.202337026041746
1758301032644542500,5.00554248046875,-0.808647382871434,-2.98844824052155,3.0504771189332005
1758301032654516500,5.0155166015625,-0.8098235139787197,-2.971292523059249,2.0498099844507873
1758301032664490500,5.025490478515625,-0.8553647834479808,-2.8677631750017403,1.9095492808453738
1758301032674464500,5.035464599609375,-1.7063152575850487,-2.5858248867303133,1.6257026747345924
1758301032684438500,5.0454384765625,-1.1486603320360183,-1.463231308364868,1.722999996534735
1758301032694413600,5.05541357421875,-1.234427228909731,-1.3511761240243911,3.218552588920295
1758301032704387600,5.0653876953125,-2.0881810700297354,-2.0686463484764097,5.387614245086908
1758301032714361600,5.075361572265625,-3.3716263046085833,-1.41132459551692,6.093679278427362
1758301032724335600,5.085335693359375,-3.561031270611286,6.100197282019257,-7.038125197863579
1758301032734309600,5.0953095703125,-0.8086018632292747,5.288511481299996,-3.991273575951159
1758301032744283600,5.10528369140625,-1.4644205181494354,4.293461748307943,1.3857400724053381
1758301032754257700,5.115257568359375,-0.4454675661962479,3.808245451503992,2.0537747964285313
1758301032764232700,5.125232666015625,-1.8224772927224635,3.1418162629812953,-0.8452388184919953
1758301032774206700,5.135206787109375,-3.8713691394150254,0.5386263999521732,-0.949065249799937
1758301032784180700,5.1451806640625,-1.1846667343102395,0.5707318492650986,-0.8086322583675384
1758301032794154800,5.15515478515625,0.025139190496876834,1.6417805338323115,-0.28039522354789076
1758301032804128800,5.165128662109375,-1.0096001633267848,0.06305062267482281,-1.4434901044540107
1758301032814102500,5.1751025390625,-1.3251730832397937,-1.3668155917048455,-2.0629060512587425
1758301032824076500,5.18507666015625,-1.5568331366479395,-2.6190496954619884,-1.1752641882579773
1758301032834051600,5.195051513671875,-1.1372703384935856,-3.0029122346818444,-1.2059218499153852
1758301032844025600,5.205025634765625,0.023557401198148725,-1.8757015179097651,-1.9234568101666867
1758301032853999600,5.21499951171875,-0.7348154731370509,-2.0161691422641277,-0.7715137301329523
1758301032863973600,5.2249736328125,-0.31339272632971404,-1.685922457897663,0.21604864277839658
1758301032873947600,5.23494775390625,-0.17849559558406472,-0.6887661080151796,0.1084334867119789
1758301032883921700,5.244921630859375,-0.6172517545081675,-0.5612655172616243,-0.12813801187425852
1758301032893895700,5.254895751953125,-0.9216730927444994,0.5957265897899866,0.3505871693447232
1758301032903870500,5.264870361328125,-1.5780090495370327,6.188946409574151,1.8847279971912503
1758301032913844500,5.274844482421875,-0.5031668179057538,9.53144832650721,1.9429279649645088
1758301032923818500,5.284818603515625,0.3676091774247586,6.329838396820426,2.603384216557443
1758301032933792500,5.29479248046875,-0.44058585856929416,3.042214317500591,1.7952562544502317
1758301032943766500,5.3047666015625,-0.8647684254787862,2.175997885170579,1.4168977194741368
1758301032953740500,5.314740478515625,-0.397847663822025,-0.3347030792534351,0.4142649109419435
1758301032963714600,5.324714599609375,0.6442610497258603,-0.9741343707352876,-0.41401524702981113
1758301032973689600,5.334689697265625,2.493238372969627,1.4445178400665522,-0.5367615193957462
1758301032983663600,5.34466357421875,3.083617171990871,4.698745845741033,-0.16360614255331457
1758301032993637600,5.3546376953125,3.19221900100708,7.983878692767024,0.6136409435998648
1758301033003611600,5.364611572265625,3.157051826035976,8.528549633580445,0.7455991713494062
1758301033013585700,5.374585693359375,1.840607992696762,2.0124650270491835,1.4576247205294668
1758301033023559700,5.3845595703125,0.7025497917611152,-5.2926124868780375,0.5894881337918341
1758301033033533700,5.39453369140625,3.168137868195772,-16.254620855247975,-3.296390738621354
1758301033043508500,5.404508544921875,2.648001064658165,-13.650842378675938,-4.88967232222259
1758301033053482500,5.414482421875,0.9847137054819614,-2.8430811536878347,0.5101425021372735
1758301033063456000,5.4244560546875,1.0365923612792045,-1.0113298366636037,2.0067019334778187
1758301033073430000,5.434429931640625,1.820219869184494,-1.5922557476848362,0.9487561838507652
1758301033083404000,5.444404052734375,2.855661818319559,-0.08648410523235797,1.5110174341514706
1758301033093378000,5.4543779296875,2.1183739637196064,1.7934318155020474,0.5694540844142436
1758301033103352000,5.46435205078125,-0.6511666643958538,0.16679975096285343,-1.0075383354261518
1758301033113327000,5.4743271484375,-0.9139595226924866,-0.2701192556619644,-0.10115209753215312
1758301033123301000,5.484301025390625,0.6397978597719222,1.5873112770199775,0.2404208674907684
1758301033133275100,5.494275146484375,0.6356921049535275,0.32808687598407266,1.3538662398912011
1758301033143249200,5.504249267578125,0.5103706118047238,0.23948387890160083,0.9122893244579434
1758301033153223000,5.514222900390625,1.1031331641573459,0.5097165318101644,-0.010692001340910792
1758301033163197000,5.524197021484375,1.5568798983991146,0.568532293394208,-0.8199784127682447
1758301033173171000,5.5341708984375,1.3022154015004634,-0.1286065061688423,-1.7928461245685814
1758301033183146000,5.54414599609375,0.9061702570557594,-0.3328039676338434,-2.0901590921044346
1758301033193120000,5.5541201171875,1.0206558834135533,-0.13836451459527016,-1.6944874571472406
1758301033203094000,5.564093994140625,0.9789736274600028,0.3327180429160595,-1.1586471807822585
1758301033213068000,5.574068115234375,0.8514660224437713,0.6428641885399818,-0.8105174145270139
1758301033223042000,5.5840419921875,0.2131166809797287,-0.1249205111324787,-0.01631385981068015
1758301033233016000,5.59401611328125,0.41490532773733135,-0.3772977738767862,0.3085163524650037
1758301033242990800,5.603990966796875,0.9872796835124492,0.6335112537831068,-0.03172404877990484
1758301033252964900,5.61396484375,0.5027998842895031,0.2207715796470642,-0.4587007764525711
1758301033262939000,5.62393896484375,0.2070201176702976,-0.030892566391825676,-0.30632410311773417
1758301033272913000,5.633912841796875,-0.009557517418265342,-0.003057634004950523,-0.23611922477409242
1758301033282887000,5.643886962890625,-0.4152221386015415,-0.6065531042307615,-0.44469621649757024
1758301033292861000,5.65386083984375,-0.234599011203181,-0.7437246096491813,-0.46199075790867206
1758301033302835000,5.6638349609375,-0.3031652189617045,-0.5184592257142067,-0.4071389315195381
1758301033312810200,5.673810302734375,-0.714202162566781,-0.3514303421705961,-0.34451018751859663
1758301033322784000,5.683783935546875,-0.7872960403501987,-0.47037177889347076,-0.39470468962118027
1758301033332758000,5.693758056640625,-0.7268453710407018,-0.7068108832716942,-0.5311535798534751
1758301033342732000,5.70373193359375,-0.7404127086222171,-0.8405576749384402,-0.8185431192681193
1758301033352706000,5.7137060546875,-0.7903022364288568,-0.9808008428871631,-1.0768240530982613
1758301033362680000,5.72368017578125,-0.9576625438839197,-1.3684101674199103,-1.3294811556972563
1758301033372655000,5.733655029296875,-1.1338485473513602,-2.1480507245808838,-1.6150883417397737
1758301033382629000,5.743629150390625,-1.1540385179430246,-3.141928491184115,-1.8612405924893916
1758301033392603100,5.75360302734375,-1.0910492700666188,-3.9474908405870197,-1.968281748060137
1758301033402577200,5.7635771484375,-1.3260574648588894,-4.328232617437839,-1.9840838589563965
1758301033412551200,5.77355126953125,-1.8157663969069717,-4.081667255842685,-1.9993894185073673
1758301033422525200,5.783525146484375,-2.3000971430480477,-3.1681402062833306,-1.734942509393394
1758301033432499200,5.793499267578125,-2.86901346732378,-2.0748241603285074,-1.640512559723109
1758301033442474200,5.80347412109375,-4.147409017297625,0.2099094093710184,-1.2015586862698198
1758301033452448300,5.8134482421875,-3.25439810154438,3.236380798816681,-0.31932036281302567
1758301033462422000,5.823422119140625,-1.4648662160903214,5.62638851441443,0.3464382329717278
1758301033472396000,5.83339599609375,-0.5158446958342566,6.553176612085104,-0.6129280460901558
1758301033482370000,5.8433701171875,-0.34476094740927216,4.7848687164455646,-2.4994185229092833
1758301033492344000,5.853343994140625,-0.8701941037893295,2.5472517027080057,-2.6835513937279583
1758301033502319000,5.863319091796875,-1.0535703110218047,1.1971814940989016,-2.034078454572707
1758301033512293000,5.873293212890625,-1.0532874024271965,0.4177355827271938,-2.0867171349570155
1758301033522267100,5.88326708984375,-1.0730582708239556,-0.06957564052939415,-2.0592285317897794
1758301033532241200,5.8932412109375,-1.0784633447378873,-0.7260983520656824,-1.6469157047636807
1758301033542215200,5.903215087890625,-0.793341750255227,-1.6173539485841988,-1.0604853511072694
1758301033552189200,5.913189208984375,-0.18554299334492533,-2.6204800205260512,-0.45940629437342284
1758301033562164000,5.9231640625,0.6233125158518552,-3.2476421975433825,-0.3331729470767081
1758301033572138000,5.933137939453125,0.948715924905613,-3.384506828969717,-0.6162734109953045
1758301033582112000,5.943112060546875,1.028133087426424,-3.223759802174568,-0.26129648225903507
1758301033592086000,5.9530859375,0.4968891989409923,-2.9484020613372324,0.42885304293856025
1758301033602060000,5.96306005859375,-0.4058183869728818,-2.9624101284235715,0.6926885421559215
1758301033612034000,5.973033935546875,-0.7714923220187425,-3.243358821135759,0.7692072798214853
1758301033622008000,5.983008056640625,-1.0929992350906133,-3.483474568200111,1.0378607007145881
1758301033631983000,5.992983154296875,-1.2957879988014698,-3.681880002260208,1.5374517059601842
1758301033641957000,6.00295703125,-0.8037333804100751,-3.275644887712598,1.8497863015390932
1758301033651931100,6.01293115234375,0.33476967821624126,-2.228657462212443,2.0705346464410423
1758301033661905200,6.0229052734375,0.7973024705797433,-1.1058709916234015,1.798655249238759
1758301033671879200,6.032879150390625,0.9852964007407427,-0.16058862136304378,0.9852093069791793
1758301033681854000,6.04285400390625,1.3967583100259304,0.5931289745122194,0.012177782919257878
1758301033691828000,6.052827880859375,1.9117232638835906,1.1447528032034635,-0.7466368438340724
1758301033701802000,6.062802001953125,2.4863521205872297,1.3859826489895581,-1.2013485506504773
1758301033711776000,6.07277587890625,2.4041116442739963,1.426556066918373,-1.3694548541672527
1758301033721750000,6.08275,1.7179396444052457,1.3086854742974041,-1.2663902010120451
1758301033731724000,6.09272412109375,1.0029507153749466,1.0697305877059697,-0.8723251244686543
1758301033741699000,6.102698974609375,0.5151028644910082,0.9531143790602683,-0.1925502782911062
1758301033751673000,6.112673095703125,-0.02793665746198967,0.9357827205091714,0.43051001636534925
1758301033761647000,6.122647216796875,-0.2758686312352307,1.0084487282693386,0.9309357188694178
1758301033771620900,6.132620849609375,-0.34494510833714154,0.9424906937152147,1.2287353008784354
1758301033781595000,6.142594970703125,-0.4105722669690847,0.7955161716848611,1.3981068020254372
1758301033791569000,6.15256884765625,-0.1868950290083885,0.5953273613393306,1.2313675490781664
1758301033801544000,6.1625439453125,0.41149055085778236,0.42854923768639563,0.956834714757651
1758301033811518000,6.17251806640625,0.9014297845304011,0.4446493086159229,0.7711598751939833
1758301033821492000,6.182491943359375,1.0185901830554007,0.6452502068936824,0.477504991774261
1758301033831466000,6.192466064453125,0.8485060035943984,1.0208680648595094,0.11752250983566045
1758301033841440000,6.20243994140625,0.6318512116163969,1.4186311191380023,-0.3149709354318678
1758301033851414000,6.2124140625,0.5724696328431368,1.7292846297621727,-0.7628463664874434
1758301033861389000,6.22238916015625,0.40053777968883514,1.7291560349464417,-1.0505109234511851
1758301033871363000,6.232363037109375,0.14684709625840187,1.543320159602165,-1.052568440502882
1758301033881337000,6.242337158203125,0.11977554945945738,1.296872871428728,-1.0522653659030794
1758301033891311000,6.25231103515625,0.08333996198773383,1.1009031400829552,-0.8559002054989338
1758301033901285000,6.26228515625,-0.08387538403868675,1.015445455288887,-0.5785505601920187
1758301033911260200,6.27226025390625,-0.3830769418001175,0.9664104984849691,-0.32869901653304695
1758301033921234200,6.282234130859375,-0.6547042639374733,0.9833546190232038,-0.18171528828293085
1758301033931208200,6.292208251953125,-0.8859715186357497,0.9847545489490032,-0.05537731156796217
1758301033941182200,6.30218212890625,-1.1460837595462798,0.9847457811206579,0.03692863168567419
1758301033951156200,6.31215625,-1.2691641957700253,1.0312146868288516,0.08771218572258949
1758301033961130200,6.322130126953125,-1.247487786012888,1.1047329275041817,0.14580416307672858
1758301033971105000,6.33210498046875,-1.3113292668044567,1.2147983993321656,0.2690129018552601
1758301033981079000,6.3420791015625,-1.4342565582931042,1.319728846359253,0.4154261367410421
1758301033991053000,6.352052978515625,-1.6157500205188988,1.4234727139502763,0.5201344654500484
1758301034001027000,6.362027099609375,-1.739278785032034,1.4686217692315577,0.5426918958254158
1758301034011001000,6.3720009765625,-1.7558160783350467,1.4200842405557632,0.37773397333696485
1758301034020976000,6.38197607421875,-1.9369331084638832,1.18310386890769,0.06363514456450939
1758301034030950100,6.3919501953125,-2.1697037534624335,0.9447077852427959,-0.3983640889115631
1758301034040924200,6.401924072265625,-2.246795760971308,0.7708581157684326,-0.8426178223386407
1758301034050898200,6.411898193359375,-2.36368961751461,0.4952139592051506,-1.1362313508346675
1758301034060872400,6.42187255859375,-2.547277421671152,0.16835457918941973,-1.2557374357029796
1758301034070846500,6.431846435546875,-2.6381810969114303,-0.15231588305830954,-1.1539964323669671
1758301034080821500,6.441821533203125,-2.7176696441680193,-0.5048398656845092,-0.8658493525832891
1758301034090795500,6.45179541015625,-2.8973516730576754,-0.8787485816448927,-0.6110130062490702
1758301034100769500,6.46176953125,-2.840277202183008,-1.2035837623566388,-0.6141732238456606
1758301034110743600,6.47174365234375,-2.387237666362524,-1.4784955129921435,-0.8094836144998669
1758301034120717600,6.481717529296875,-1.989631263950467,-1.7341414221435785,-1.091553566326946
1758301034130692600,6.491692626953125,-1.8645307200759649,-1.9647569349348544,-1.1748483739987015
1758301034140666400,6.501666259765625,-2.2119909895718095,-2.118489699053764,-1.0793334055706858
1758301034150640400,6.511640380859375,-2.8331846135735512,-2.096139920079708,-1.0471600055880843
1758301034160614400,6.521614501953125,-3.433474565756321,-1.8783096545815468,-1.1097744288027287
1758301034170588400,6.53158837890625,-3.8319092356860636,-1.7062684958338736,-0.9522638997107744
1758301034180562400,6.5415625,-3.8403742816925046,-1.7172031468242406,-0.4843579264089465
1758301034190537500,6.551537353515625,-3.120363725107908,-1.8868214623391628,-0.19109701074287294
1758301034200511500,6.561511474609375,-1.42531220433712,-2.1992980967372655,0.07586874932423233
1758301034210485500,6.571485595703125,0.34328035346269603,-2.636471370384097,0.26349720717370506
1758301034220459500,6.58145947265625,1.0323381379008292,-3.2261458205282687,0.16482859702035785
1758301034230433500,6.59143359375,1.5867232479989528,-3.6393525276541707,-0.09282368351742624
1758301034240408600,6.60140869140625,2.3145313265919683,-3.8144752858042716,0.15641557346209883
1758301034250382600,6.611382568359375,2.207148810237646,-3.642642216849327,0.9533931960016488
1758301034260356600,6.621356689453125,2.0145500166296957,-2.630717336902022,1.442632464711368
1758301034270330600,6.63133056640625,1.408739839720726,-1.0113222378790379,1.0935649061493575
1758301034280304600,6.6413046875,1.160028113746643,0.5142535907179117,0.4338588884018361
1758301034290279700,6.65127978515625,1.0782593465983867,1.3630273053377866,0.26777883001565933
1758301034300253700,6.661253662109375,0.8658546132802962,1.4133616543024778,-0.19684519900605082
1758301034310227700,6.671227783203125,1.4487994629085064,0.9860837517261505,-0.34624124909490345
1758301034320201700,6.68120166015625,2.3316180704712868,0.6434492949515581,0.25495295845121146
1758301034330175700,6.69117578125,2.5772026043355463,0.46312604554891584,0.20875614768266676
1758301034340149800,6.701149658203125,3.1069162145137783,0.33806934081614015,-0.3120085784949362
1758301034350124500,6.71112451171875,3.595876958543062,0.25051848313510416,-0.5382870849952102
1758301034360098600,6.7210986328125,3.1956852158129214,0.18527824146151542,-0.17200389547720552
1758301034370072600,6.731072509765625,1.8384721497118472,0.18898527928590775,0.18130553843826056
1758301034380046600,6.741046630859375,0.32808278433084487,0.33541151978373523,0.0029933365970849987
1758301034390020600,6.7510205078125,-0.38160979185700417,0.6952472867280245,-0.3753917941249907
1758301034399995600,6.76099560546875,-0.33748189631700515,1.20719961476624,-0.4824361645661294
1758301034409969700,6.7709697265625,-0.027033552876114843,1.7560452109158038,-0.36885537809357044
1758301034419943700,6.780943603515625,0.09926585452728905,2.164016355475783,-0.2585784554719925
1758301034429917700,6.790917724609375,0.0807032020096667,2.60058289540112,-0.3514398406513035
1758301034439891500,6.800891357421875,0.04360180757297203,3.0472862139374017,-0.4079974480450153
1758301034449865500,6.810865478515625,-0.033464462706446645,3.4683939034461972,-0.28082769668102264
1758301034459840500,6.820840576171875,-0.12316698199603705,3.742382694017887,-0.04350757168456912
1758301034469814500,6.830814453125,-0.2790858945149928,3.812076407968998,0.11784735787585376
1758301034479788500,6.84078857421875,-0.49610820463113486,3.752762633734941,0.11723024889081717
1758301034489762600,6.850762451171875,-0.6138661306578665,3.55919587187767,0.10587430374845862
1758301034499736600,6.860736572265625,-0.7906442547995597,3.149964498123526,0.0624430121704936
1758301034509711600,6.870711669921875,-1.0449631531309336,2.6228631162703038,-0.10552680548503994
1758301034519685600,6.880685546875,-1.0833278089690952,2.144240226382017,-0.488325660996139
1758301034529659400,6.890659423828125,-1.0929829415429382,1.7736235377043486,-1.0036476115979254
1758301034539633400,6.90063330078125,-1.0997510474383831,1.4579922386676072,-1.567224182280898
1758301034549607400,6.910607421875,-0.920785057863593,1.216295359891653,-1.9331798934102058
1758301034559582500,6.92058251953125,-0.36723508341535926,1.0796037469446658,-1.9028268407225608
1758301034569556500,6.930556396484375,0.01571545552611351,0.9306558790147303,-1.6400095786370337
1758301034579530500,6.940530517578125,-0.23019348798692224,0.8217688033163547,-1.2337651117391883
1758301034589504500,6.95050439453125,-0.8370436024028808,0.6815899327754974,-0.9907852074153721
1758301034599478500,6.960478515625,-1.4117021966576575,0.40725568976700305,-0.9781118960641324
1758301034609452500,6.97045263671875,-2.1459170735530555,-0.01600947003662586,-0.9867579977259039
1758301034619427600,6.980427490234375,-2.8985277310997244,-0.4578507354944944,-1.2280955416701733
1758301034629401300,6.9904013671875,-3.3024411247014998,-0.8245254085481166,-2.103494959017634
1758301034639375400,7.000375244140625,-3.2115544005960226,-0.9491793776988983,-3.050172583028674
1758301034649349400,7.010349365234375,-2.589529001945257,-1.107811604297161,-3.527828673711419
1758301034659323400,7.020323486328125,-2.2992414030015467,-1.424793733420968,-3.5484693106800314
1758301034669298700,7.030298583984375,-1.9563124933250247,-1.9537030414789913,-3.6711283066213127
1758301034679272700,7.040272705078125,-2.1800189573802053,-2.54535960535109,-3.5633252267673607
1758301034689246700,7.050246826171875,-2.5401146904349328,-3.252326555967331,-3.0635102035075423
1758301034699220700,7.060220703125,-2.6611475464791057,-3.7521874641954898,-2.726181451925635
1758301034709194800,7.07019482421875,-3.00872062869966,-3.640997372251749,-2.686572202853858
1758301034719169500,7.08016943359375,-2.986374356856942,-3.087757925057411,-2.6877219574108717
1758301034729143600,7.0901435546875,-2.8742718262434006,-2.3398487231999634,-2.3752488301441073
1758301034739117600,7.10011767578125,-2.580095987689495,-1.8855232392221688,-2.4138503634780646
1758301034749091600,7.110091552734375,-2.543539988708496,-1.6965180861920117,-2.6487846162512896
1758301034759065600,7.120065673828125,-2.312605326965451,-1.9829852500647305,-2.738207113023102
1758301034769039600,7.13003955078125,-1.765008269572258,-2.6257220128327607,-2.790406963598728
1758301034779014700,7.1400146484375,-0.7433097452379762,-3.1559751367151736,-2.0092872737959024
1758301034788988700,7.14998876953125,1.1408972968190907,-3.109621381819248,-0.48278468574285505
1758301034798962700,7.159962646484375,2.6322423545122144,-2.0082120457798243,0.6882526055350899
1758301034808936700,7.169936767578125,2.4171117033615706,-0.4807131401658058,0.399756566183269
1758301034818910700,7.17991064453125,1.5420130225263535,0.15115385354161262,-1.061733159211278
1758301034828885500,7.189885498046875,1.8385346935540436,0.010084171640872955,-2.2426728358224035
1758301034838859500,7.199859619140625,2.0855457530900834,-0.23572774123847484,-2.1601126260355112
1758301034848833500,7.20983349609375,1.3009645246565342,-0.42422202213704585,-1.0059387912750244
1758301034858807600,7.2198076171875,0.40193332570046186,-0.31090368599295615,0.5710775939628482
1758301034868781600,7.229781494140625,0.26390213471278545,0.11412965252697467,2.4319709804497656
1758301034878756600,7.239756591796875,0.8301236669465899,0.5335299535959959,4.237429479962587
1758301034888730600,7.249730712890625,0.8413086394362151,0.4016764283299446,5.776783658543229
1758301034898704600,7.25970458984375,0.2939040358752012,-0.450717814874649,6.565498918041587
1758301034908678700,7.2696787109375,-0.43774698188155886,-1.7246417723923921,6.383167251425981
1758301034918652400,7.27965234375,-0.6537345421224832,-3.0367607282698152,5.271076946896314
1758301034928627500,7.28962744140625,-0.5475894586086273,-4.468242561152577,4.0187385059818626
1758301034938601500,7.2996015625,-0.475886158400774,-5.922068327790498,2.9767034421920773
1758301034948575500,7.309575439453125,0.1837207828864455,-6.975061715707183,1.0161197012886405
1758301034958549500,7.319549560546875,0.32561668647825714,-7.520420638784766,-1.131243333289027
1758301034968523500,7.3295234375,-0.8671697875320911,-7.818088995629549,-2.089386938688159
1758301034978498600,7.33949853515625,-1.669853366628289,-7.8716078198492525,-2.256537110523879
1758301034988472600,7.34947265625,-1.516536343703419,-7.861417265224456,-1.9000413016572593
1758301034998446600,7.359446533203125,-1.720264872482419,-7.570741543745994,-1.0837529755786062
1758301035008420400,7.36942041015625,-2.3747990405499935,-6.930632206872105,-0.10731558859795332
1758301035018394400,7.379394287109375,-2.4274692851163446,-6.346162339633703,0.1679553507387638
1758301035028368400,7.389368408203125,-2.58570038356781,-5.904462528473139,-0.03941635684818029
1758301035038343700,7.39934375,-3.7255893801271913,-4.9809635354757305,-0.26381431029886004
1758301035048317700,7.409317626953125,-4.71404570620358,-3.7957115486234425,-0.6230377905637026
1758301035058292000,7.4192919921875,-4.591282080844044,-2.3709978947013615,-1.1120753992214798
1758301035068266000,7.429265869140625,-2.9424533820658922,-0.25572131247520447,-1.8562351854175327
1758301035078240000,7.439239990234375,-0.07473872238099574,2.4562749622315168,-2.3031302271336314
1758301035088214800,7.44921484375,1.5132826026044786,5.054567116346955,-2.1857880423009393
1758301035098188800,7.459188720703125,1.4142968893259762,7.471051919981837,-2.544709617009759
1758301035108162800,7.469162841796875,0.7925631670981645,9.793487736088037,-3.443579195663333
1758301035118136800,7.47913671875,0.17410437488779423,12.229307354789972,-3.6029926357671616
1758301035128110800,7.48911083984375,-0.3437340885795653,14.162586616921423,-3.6712703454405067
1758301035138086000,7.4990859375,-0.9889860490389167,15.13982070723772,-3.53836468077302
1758301035148060000,7.509059814453125,-1.9374159235447643,15.130766463166474,-4.287960812804102
1758301035158034000,7.519033935546875,-2.5377462077379227,13.794281712317465,-4.3270334707811475
1758301035168008000,7.529008056640625,-2.391342179071903,11.349017388921975,-3.6260052625641226
1758301035177982000,7.53898193359375,-1.841281361913681,9.471813065233826,-3.5360371146082876
1758301035187956700,7.548956787109375,-0.025602643290162087,8.453315236636996,-3.0178619665324686
1758301035197930800,7.5589306640625,2.113863208296895,8.072878580212592,-1.7718718717314301
1758301035207904800,7.56890478515625,4.946859021300077,8.062817789447307,0.3247473562978208
1758301035217878800,7.578878662109375,9.580804770350456,7.611550523996352,4.353351568864285
1758301035227852800,7.588852783203125,10.629608889883755,4.387062407547235,9.093682347664236
1758301035237827800,7.598827880859375,4.584713808369636,-2.7822388547122476,10.900405021893977
1758301035247801900,7.6088017578125,-3.778108671915531,-11.702683527320623,9.758070970270037
1758301035257775900,7.61877587890625,-6.855236481887101,-18.00549655457139,3.254405115807056
1758301035267750000,7.62875,-1.804143179130554,-17.633771027868985,1.6950155726745724
1758301035277724000,7.638723876953125,4.187060059684515,-9.00978767440319,3.4798145843878387
1758301035287698700,7.64869873046875,2.1125228996038437,-4.595637937965988,0.24343787722438573
1758301035297672700,7.658672607421875,-0.4614765247762203,-3.472003910636902,-3.1338731950223444
1758301035307646700,7.668646728515625,-1.8795698837757109,-3.0793349646270274,-4.690275539037585
1758301035317620700,7.678620849609375,-3.129958067405224,-4.436577841344476,-4.2926460480108855
1758301035327594800,7.6885947265625,-3.5374995883762836,-6.755290253013372,-2.358800384168327
1758301035337569800,7.69856982421875,-3.415277814808488,-8.3587343341887,-0.027382512444257736
1758301035347543800,7.708543701171875,-3.984057360962033,-9.640154200419783,0.8807800874724984
1758301035357517800,7.718517822265625,-4.299856417781115,-10.878471422505378,-0.6402431923866272
1758301035367491800,7.728491943359375,-4.2392824143528935,-11.128607043802738,-3.910608093869686
1758301035377465600,7.738465576171875,-2.8574299970358608,-9.230345319038628,-6.831419552969932
1758301035387441000,7.74844091796875,-1.3049170616745949,-5.5640901714116335,-8.467261928924918
1758301035397415000,7.758414794921875,-0.22111776273623107,-2.378761514440179,-7.5251967671453945
1758301035407389000,7.768388916015625,0.799633397745341,-0.5106523513555526,-4.435865893682837
1758301035417363000,7.778363037109375,1.3649164800852536,0.7095049446612596,-1.7193370901130138
1758301035427337000,7.7883369140625,0.8198404656022786,1.4383546412616968,0.3317670258015394
1758301035437310700,7.798310791015625,-0.21887027607038617,1.1318278551787138,2.169509692195058
1758301035447286000,7.8082861328125,-1.880498689058423,0.028322423642873764,3.7893648099452255
1758301035457259800,7.818259765625,-2.619033913370967,0.015490414598584175,5.081235343042016
1758301035467233800,7.82823388671875,-2.310979187068343,2.0956085896819827,5.8944905850350855
1758301035477207800,7.838207763671875,-0.6422843428254127,5.266528782072663,5.977486263629793
1758301035487181800,7.848181884765625,0.6207786134600639,8.491909463447332,4.651106142687797
1758301035497156900,7.858156982421875,0.5980627776525914,10.513545054423808,2.4463927429035306
1758301035507131000,7.868130859375,0.27342019690349695,11.25042608178854,0.8264796113558113
1758301035517105000,7.87810498046875,-0.18564838994815944,12.16258067395091,-0.40388051424548027
1758301035527079000,7.888078857421875,-0.20657018194571136,13.585214598989486,-1.6936727797634898
1758301035537053000,7.898052978515625,-0.13232391925677656,14.6465263179183,-2.95235079896301
1758301035547027700,7.90802783203125,-0.4965804252527654,14.482082774692772,-3.6347663689076897
1758301035557001700,7.918001708984375,-0.7585890743691474,13.412088567614555,-3.367421254134178
1758301035566975700,7.927975830078125,-0.6211310801595449,12.036724927794932,-2.9352549949944016
1758301035576949800,7.93794970703125,-0.2886807482689619,10.868766021049023,-2.3149479445688423
1758301035586923800,7.947923828125,1.2037812576901168,9.73473276478052,-0.9554818388439714
1758301035596898800,7.95789892578125,4.361924166898429,7.8766200950533145,0.9374167514517903
1758301035606872800,7.967872802734375,6.217645849835872,5.507238987898826,2.633245101813972
1758301035616846800,7.977846923828125,4.66063151140213,2.632832721620798,4.081498621277511
1758301035626820900,7.98782080078125,2.8655618655651804,-0.009974281525611877,5.348941692343354
1758301035637417700,7.998417724609375,0.43955286225974555,-7.977033356916904,8.552298757958411
1758301035647392800,8.008392822265625,-1.0934019706726072,-19.146401450175045,11.892925528669357
1758301035657366800,8.01836669921875,-0.006011076983064413,-23.575119225668907,9.959102661180495
1758301035667340800,8.0283408203125,1.8835463861912487,-21.269633959841727,-1.0859341190099716
1758301035677314800,8.038314697265625,-0.2348667404949665,-18.42599809488058,-6.114428636467457
1758301035687288800,8.048288818359374,-3.2175504261404275,-15.16210735784769,-4.133772706133127
1758301035697263600,8.058263671875,-3.177657391691208,-11.356889729732274,-2.4301260832354425
1758301035707237600,8.068237548828124,-1.8305764280259609,-8.630751532426476,-1.2775481393642723
1758301035717211600,8.078211669921876,-1.4019775059789419,-7.191072364562749,-1.1592464618496596
1758301035727185700,8.088185546875,-1.5005588762402533,-6.553599805933237,-2.4053503922887147
1758301035737159700,8.09815966796875,-2.766044091236591,-6.486819933602214,-3.9090696322560308
1758301035747135000,8.108135009765626,-4.4579690044194455,-6.690960111922025,-4.982713594013452
1758301035757109000,8.11810888671875,-4.600772962766886,-6.068702658081055,-5.668431420373916
1758301035767083000,8.1280830078125,-2.856321743533015,-3.5339077013641593,-6.025702889788151
1758301035777057000,8.13805712890625,0.04179101355765014,0.24693770203888415,-5.345065727692842
1758301035787030800,8.14803076171875,1.1571481743961571,4.069775157997012,-3.7112604105234146
1758301035797005800,8.158005859375,1.4252461533635854,7.542864525783061,-2.6671123001024126
1758301035806979800,8.167979736328125,1.0046720592748373,10.164216068446635,-2.506967038592696
1758301035816953900,8.177953857421874,-1.0596259577989577,12.086065589547157,-2.5019880811363455
1758301035826927900,8.187927978515624,-3.351982861983776,14.062390212678908,-2.206013084205985
1758301035836902000,8.19790185546875,-4.090115350714326,15.921230612158775,-1.0004624056905507
1758301035846877000,8.207876953125,-3.3123931943953036,17.061994053465128,0.5302222903527319
1758301035856851000,8.217850830078126,-2.480239775186777,15.885065073800087,-0.4846294368267059
1758301035866825000,8.227824951171876,-1.919120972919464,12.518891189378499,-2.053956874997169
1758301035876799000,8.237799072265625,-0.6152209793329239,10.6983825663805,-1.8949290732100605
1758301035886773000,8.24777294921875,0.9348153367817401,9.719072838833927,-1.0001848308581858
1758301035896747800,8.257747802734375,0.9743021285176277,8.82869694775939,-0.01227696897741407
1758301035907345700,8.268345703125,1.3563999961525202,7.24273182465136,0.2669596225872636
1758301035917319700,8.278319580078126,5.457459350207448,5.501890612608194,0.7905662211272865
1758301035927293700,8.288293701171876,15.510315230840444,3.692982411032915,3.7455540175303814
1758301035937267700,8.298267822265625,12.873988237363099,-0.19359189629852772,7.080258120194077
1758301035947241700,8.30824169921875,-2.745068523225188,-9.260860868811607,12.422110731059313
1758301035957216800,8.318216796875,-7.778797434204816,-18.467839340788125,12.695329121780395
1758301035967190800,8.328190673828125,-8.761775036609173,-21.41258229509592,-0.3837628782376647
1758301035977164800,8.338164794921875,0.7836603141963482,-20.122568203520775,-5.121314255452155
1758301035987138800,8.348138916015625,11.674854440152645,-7.032989588540792,0.9564958381921053
1758301035997112800,8.35811279296875,3.1409026552677153,-3.899516791012883,1.2723264591932295
1758301036007087600,8.368087646484375,-1.7947838146328925,-3.9191678324222563,-4.907677349990606
1758301036017061600,8.3780615234375,-4.162134877264499,-3.5031934141486882,-8.626796072798967
1758301036027035600,8.38803564453125,-6.71051529174149,-5.794224038165807,-8.107258404198289
1758301036037009700,8.398009765625,-5.7088850113153455,-9.325081704309582,-5.142051338532567
1758301036046985000,8.40798486328125,-2.998694324725866,-11.197454370057581,0.7204528204593807
1758301036056958200,8.417958251953126,-2.5206775840371844,-11.107197176027297,4.975114224925637
1758301036066932200,8.42793212890625,-4.366175102341175,-8.673484758737683,2.357997835613787
1758301036076906200,8.43790625,-6.367806600686907,-5.074052153539657,-1.7687844271101056
1758301036086880300,8.44788037109375,-3.8520325707823035,-2.494208679306507,-4.360878164976835
1758301036096855000,8.45785498046875,0.40278877348601816,-1.2458207295835018,-5.13676609160602
1758301036106829000,8.4678291015625,3.269170723262429,-0.06305471432805061,-3.459737426520884
1758301036116803000,8.477802978515625,3.80009838540554,0.6495213083416224,-1.076967114830762
1758301036126777000,8.487777099609374,2.29069876171425,0.5175771821826696,1.2785152308307588
1758301036136751000,8.497751220703124,0.33844343482553957,-0.07961421946287155,2.686406490898132
1758301036146726100,8.50772607421875,-1.1479689887709914,-0.2754401584237814,3.6006451958581804
1758301036156700200,8.5177001953125,-2.0106312357507643,0.5787818847298621,4.373427557687461
1758301036166674200,8.527674072265626,-2.0259400101721288,2.2788269760042428,4.685235499043762
1758301036176648200,8.537648193359376,-1.1811351991832255,4.661742687514424,5.009758837327361
1758301036186622200,8.547622314453125,-0.26704598569646476,7.539551455712318,5.291832734677195
1758301036196597200,8.55759716796875,-0.03538008706942201,10.150511368221045,4.002663277232647
1758301036206571300,8.5675712890625,-0.42400998682156205,12.089444126069544,1.6078952153652906
1758301036216545300,8.577545166015625,-0.9765465464435518,13.384769183534383,0.40780119482055305
1758301036226519300,8.587519287109375,-0.6605461218334734,14.212792371070384,-0.430743167534098
1758301036236494300,8.597494384765625,-0.3307739231109619,14.245317507100104,-1.3353707982577383
1758301036246468400,8.60746826171875,-0.14616364403888582,13.292175070989131,-1.9994116303391753
1758301036256442400,8.6174423828125,-0.28682883679196236,11.90386544035673,-2.5608234242036936
1758301036266416400,8.62741650390625,-0.5398042115598917,10.4708515756011,-2.306911060846597
1758301036276390400,8.637390380859374,0.8410369828879832,9.105788965043425,-1.1135706792805342
1758301036286365200,8.647365234375,5.081906958693265,7.114914423033595,0.7078063240498303
1758301036296339200,8.657339111328126,9.148857706919312,4.61428477076888,2.777471494179964
1758301036306313200,8.667313232421876,9.863741422009468,1.5424784480810165,4.572373089973628
1758301036316287200,8.677287353515625,8.42557324323058,-3.7475755864858624,6.811964910915494
1758301036326261200,8.68726123046875,2.9912632979422806,-11.820718370592594,9.74588485791385
1758301036336236300,8.697236328125,-4.429312818777561,-19.753084902787208,11.384901187729835
1758301036346210300,8.707210205078125,-6.040916241011023,-22.092030539667604,7.1244345310509205
1758301036356184300,8.717184326171875,-0.9003251112241297,-17.895041791164875,-1.4760310225747524
1758301036366158300,8.727158447265625,3.3061583916589616,-14.618443548250198,-4.422899152342975
1758301036376133000,8.737133056640625,0.857656036190316,-10.836292322945594,-1.5111432524882256
1758301036386107100,8.747107177734375,-2.551864749461412,-6.903351985758543,0.5016613087136298
1758301036396081200,8.7570810546875,-2.2888778298974035,-4.37032520775795,0.1086302331267856
1758301036406055200,8.76705517578125,-1.228188626781106,-3.84232249315083,-1.1346554067548364
1758301036416030200,8.7770302734375,-1.1733103507764637,-4.495630918815732,-2.8962358207702636
1758301036426004200,8.787004150390626,-1.7890477551989257,-5.305632711970806,-4.313007283516228
1758301036435978200,8.796978271484376,-2.6311834931090474,-5.876033721846341,-4.47716031936258
1758301036445952300,8.8069521484375,-3.6496845365762707,-6.003310440716147,-3.382455449397862
1758301036455926300,8.81692626953125,-4.241224196070433,-5.483481095692515,-2.610695124092698
1758301036465901000,8.826901123046875,-4.6115287500590085,-4.205428075546026,-2.4118118433877824
1758301036475875000,8.836875,-3.7512037138551473,-2.200753556242585,-2.8680685876891014
1758301036485849000,8.84684912109375,-1.123639214960858,0.5674661254674196,-3.484180086120963
1758301036495823000,8.856822998046875,0.35682599066905674,3.620437399303913,-3.1870833916842938
1758301036505798400,8.86679833984375,0.9653583590835332,6.673815500375628,-2.841447122745216
1758301036515772400,8.8767724609375,1.2201580266691743,9.417913717263936,-2.411421090504527
1758301036525746400,8.886746337890624,-0.14959142653048038,11.664943286991118,-1.687113567378372
1758301036535720400,8.896720458984374,-2.234248998609185,13.23076520125866,-1.1550661804903297
1758301036545695200,8.9066953125,-2.836409420838952,14.570345580035447,-1.1950447012659162
1758301036555669200,8.916669189453126,-1.6894278356701136,16.471015534985064,-2.0781988974586127
1758301036565643300,8.926643310546876,-0.8777448844950646,17.090070977914333,-2.44619780485332
1758301036575617300,8.9366171875,-0.2598889535486698,13.947662594258784,-1.923396604412049
1758301036585591300,8.94659130859375,0.40076808131337166,10.884022042369843,-1.6717080545842646
1758301036595566300,8.95656640625,1.5220529151678084,8.959698240110278,-0.8079265212509781
1758301036605540400,8.966540283203125,2.487146485835314,7.752408024451136,1.1413153030354528
1758301036615514400,8.976514404296875,6.071435882437229,6.687666915595531,4.472212633827328
1758301036625488400,8.98648828125,12.295436654257774,4.39755282190144,8.173796284466981
1758301036635463200,8.996463134765625,9.361701416176556,-0.3640408174186945,10.070485645347834
1758301036645437200,9.006437255859375,-3.918476927548647,-12.450512649679183,14.52069278359413
1758301036655411200,9.0164111328125,-9.708719202601909,-25.583503705406187,6.987309202861786
1758301036665385200,9.02638525390625,-4.028216236162185,-24.395049123120305,-5.696483794903755
1758301036675360300,9.0363603515625,9.165967247152327,-13.268272801876067,-4.874274554343521
1758301036685334300,9.046334228515626,9.657358433198928,-4.016278545609116,-1.926633248245716
1758301036695308300,9.056308349609376,0.5707657150020823,-1.5098761551618576,-1.8041950554482638
1758301036705282300,9.0662822265625,-4.060480675429106,-0.712206604835391,-3.885445595562458
1758301036715256300,9.07625634765625,-2.8116742080330845,-2.3156658835798503,-4.630758643446862
1758301036725231000,9.086231201171875,-2.7065853555738926,-5.044046891376376,-2.253409626153111
1758301036735205000,9.096205078125,-3.4040532409608364,-7.247274728778004,1.1813323291905224
1758301036745179100,9.10617919921875,-3.893434840750694,-9.137237411752343,3.448344218108058
1758301036755153200,9.116153076171875,-4.632102751532197,-9.647797993171215,2.3973047407381234
1758301036765128200,9.126128173828125,-5.454588178685307,-8.370695990139245,-0.7232892859943211
1758301036775102200,9.136102294921875,-5.49029778997004,-6.595636282151937,-2.64425281804055
1758301036785076200,9.146076171875,-3.2033202407360073,-4.882338910594583,-3.66631330755502
1758301036795050200,9.15605029296875,-0.6108884300213306,-3.095188367319107,-5.0954024000823495
1758301036805025300,9.166025390625,0.5419570787448436,-0.6293138020932674,-4.4763609856784345
1758301036814999300,9.175999267578124,0.6914106311745941,1.6266478466302154,-1.9771781712211667
1758301036824973300,9.185973388671876,-0.1811498364198953,2.3552491214275357,-0.06393137386499438
1758301036834947300,9.195947265625,-1.054014693788439,1.6469927155226467,0.842438739444688
1758301036844922400,9.20592236328125,-1.1135060165464878,1.2625468234568833,1.773360648984462
1758301036854896400,9.215896484375,-0.7463793619416653,1.10984632499516,1.677947825756669
1758301036864870400,9.225870361328125,-0.7182540683060884,1.508829276457429,1.3522241717725991
1758301036874844400,9.235844482421875,-0.3886464124955237,3.1934143482714887,1.4196847198441624
1758301036884818400,9.245818359375,-0.12621245063915848,5.547211517325043,1.9752716069474816
1758301036894793200,9.255793212890625,0.17528050599507985,8.10410432408154,1.95963170087561
1758301036904767200,9.265767333984375,0.5737075771402568,10.325078830575942,0.8240624672114849
1758301036914741200,9.2757412109375,0.3350906172662973,12.174531808507442,-0.14743147201761603
1758301036924715300,9.28571533203125,-0.1469984874278307,13.54317227755189,-0.38186639696657654
1758301036934690300,9.295690185546874,-0.4899276163000613,13.874181178462505,-0.30571908642929047
1758301036944664300,9.305664306640624,-0.5663391672641038,13.351017720580101,-0.49546026211641725
1758301036954638300,9.315638427734376,-0.6924205388695002,12.337578344416618,-0.9726075995594262
1758301036964612400,9.3256123046875,-0.6291167451512069,10.934790106576681,-1.1703724706936627
1758301036974587100,9.335587158203126,1.0818009647279978,9.376028047692776,-0.5375453267171979
1758301036984561200,9.34556103515625,5.37323149946928,7.196360534098744,1.120975694840029
1758301036994535200,9.35553515625,9.856174201625585,4.3025493101269,2.9473391082808376
1758301037004509200,9.36550927734375,9.975360553020238,1.073559206083417,4.271767802894115
1758301037014483200,9.375483154296875,8.10462747117281,-3.7726299482434986,5.052372236651182
1758301037024458200,9.385458251953125,4.591303708153963,-10.852156247031688,6.655725132411718
1758301037034432300,9.395432373046875,-1.8570254590123891,-18.623732497811318,9.604720483466982
1758301037044406300,9.40540625,-8.29687087547183,-22.328446263170243,10.046893172836302
1758301037054380300,9.41538037109375,-4.662195107457041,-17.164639604425428,0.8829412110291421
1758301037064356400,9.4253564453125,2.8287521840840575,-12.03381868495941,-5.627377525451779
1758301037074330400,9.435330322265624,3.9535242755323647,-9.028301236215233,-4.627674121434986
1758301037084304400,9.445304443359374,-0.1492325300902128,-6.828292360860109,-2.4749717716559765
1758301037094278400,9.4552783203125,-2.2014368623316285,-5.223260133710503,-2.3711542543068527
1758301037104253200,9.465253173828126,-1.8146107971310614,-5.034264917552471,-3.1627967994287607
1758301037114227200,9.475227294921876,-1.55222593511343,-5.72424273944497,-4.500725903867185
1758301037124201200,9.485201171875,-1.8713988522797822,-6.1234179986089465,-5.466674337798357
1758301037134175200,9.49517529296875,-3.244526695871353,-6.0048278595417734,-5.289689877429605
1758301037144150300,9.505150390625,-4.636592464166879,-5.3354392366915935,-4.130460805106162
1758301037154124300,9.515124267578125,-4.933746441748738,-4.045619206383824,-3.6875095325797793
1758301037164098300,9.525098388671875,-4.273099343758822,-2.087905760219693,-3.8580148600623008
1758301037174072300,9.535072265625,-1.9100433479726313,0.5131763168752194,-3.8061107775628567
1758301037184047000,9.545047119140625,0.6531739125650375,3.3251199894994494,-2.8993451849624514
1758301037194021000,9.555021240234375,2.465791563117504,6.051306702122092,-2.0620909354835746
1758301037203995100,9.5649951171875,2.9542712456315754,8.710168183490634,-1.3066931314364074
1758301037213969200,9.57496923828125,1.5057763186275959,10.880383978128432,-0.1793784428332001
1758301037223944400,9.5849443359375,-1.323829851937294,12.528697128599882,0.9171117761783302
1758301037233918500,9.59491845703125,-3.7681367284774776,13.654888439196347,1.38537328491956
1758301037243892500,9.604892578125,-4.136378504717349,14.075642492961883,0.8224398344457149
1758301037253866200,9.6148662109375,-2.933876107856631,14.205700951504706,-0.018247129428200424
1758301037263840300,9.62484033203125,-1.342460902649164,13.676248038089275,-0.5199609355140478
1758301037273815300,9.634815185546875,0.14184241983890533,12.026782210451364,-1.272024407506734
1758301037283789300,9.644789306640625,1.2527484830200672,10.22864440921545,-1.2327610492631793
1758301037293763300,9.654763427734375,1.07616442014575,8.95902019471824,0.011711640411964618
1758301037303737300,9.6647373046875,0.031361937469244004,8.051751036509872,1.4440547525994478
1758301037313712400,9.67471240234375,1.3686077358186244,7.167768061342835,2.6505191849589345
1758301037323686400,9.684686279296875,8.216457030063868,5.825751395329832,4.07811453179717
1758301037333660400,9.694660400390624,16.079922459989785,2.2043618098676205,7.591025622361898
1758301037343634400,9.704634521484374,8.146479238474369,-9.889045374614,13.660344366514682
1758301037353609200,9.714609130859374,-6.296161168146133,-27.279377063953874,9.449841471922397
1758301037363583200,9.724583251953124,-7.569287253284454,-26.188937450218198,-9.81686627358794
1758301037373557200,9.73455712890625,0.41684367538876826,-16.77300876929164,-12.4884902058959
1758301037383531300,9.74453125,9.422534947323799,-5.343467644846439,-1.9471321386560796
1758301037393506300,9.75450634765625,2.7140228120982646,-0.5690928498864174,0.6270386967681348
1758301037403480300,9.764480224609375,-3.8198797751963136,-0.9208663064062594,-3.823572199973464
1758301037413454300,9.774454345703125,-4.123289890563488,-3.3260587316542862,-6.749795747250318
1758301037423428400,9.784428466796875,-3.953894277888536,-6.352832318916916,-4.490655176229775
1758301037433403100,9.794403076171875,-2.864436660927534,-8.883347406357526,-2.046852303688973
1758301037443377200,9.804377197265625,-4.4689854884743685,-10.452366655361653,0.926459450238198
1758301037453351200,9.81435107421875,-5.227892469686269,-9.282219883182645,2.639755214360356
1758301037463325200,9.8243251953125,-4.768016950365901,-6.253413328787684,1.209221475982666
1758301037473300200,9.83430029296875,-4.731397823020815,-4.04460096925199,-0.9326356546550989
1758301037483274200,9.844274169921874,-2.8957138427227735,-3.541195520284772,-3.084133597080409
1758301037493248300,9.854248291015624,-0.06142324066869914,-3.1815123135536907,-5.242728219768405
1758301037503222300,9.86422216796875,1.4794950454235076,-1.4128098656386137,-5.155700509178638
1758301037513196300,9.8741962890625,1.178319484175369,0.6371972488194704,-2.719351313644647
1758301037523171300,9.88417138671875,0.5055097277700901,1.7442624186635016,-0.3713394134616479
1758301037533145300,9.894145263671875,0.12346673212759196,1.2662018388330936,1.129695811586082
1758301037543119400,9.904119384765625,-0.7786864713065326,0.47443595959246154,2.4362274688504635
1758301037553093400,9.91409326171875,-1.1842876718647777,0.37721009559333324,2.489695001274347
1758301037563068400,9.924068359375,-1.4215379464954137,1.0037690460205078,1.6516040087103843
1758301037573042400,9.93404248046875,-1.0096316544435917,2.5357857213199138,1.1835137648828327
1758301037583016400,9.944016357421875,0.21520576221346854,5.481929774597287,1.7211828641101716
1758301037592990500,9.953990478515625,1.0632852109588682,8.515203245273232,1.970067316302657
1758301037602965200,9.96396533203125,1.1846937684476375,11.064286255061626,1.0556143840700387
1758301037612939300,9.973939208984374,0.330279417592287,12.915163128316403,-0.12608875119425356
1758301037622913300,9.983913330078124,-0.3679133480031043,14.0714304282248,-0.36852669412847605
1758301037632887300,9.99388720703125,-0.6090145989734679,14.30256324288845,-0.7183574556153267
1758301037642862300,10.0038623046875,-0.19574300991781055,13.431127614605426,-1.3516633230194448
1758301037652836400,10.01383642578125,-0.13174955343492328,11.76087735761404,-2.1982626162096857
1758301037662810400,10.023810302734375,-0.7201976035892963,9.75724328727424,-2.6166975793778895
1758301037672784400,10.033784423828125,1.2248749721884726,8.03815681092143,-1.7820342231750488
1758301037682759200,10.04375927734375,7.372157245987653,5.969014787882566,0.3640719432093203
1758301037692733200,10.053733154296875,12.708111446464061,3.232538736435771,3.080725542202592
1758301037702707200,10.063707275390625,13.118593112540244,0.01939794343113899,5.244529131710529
1758301037712681200,10.07368115234375,10.541187094587087,-5.9881420976787805,7.35927613710463
1758301037722656300,10.08365625,4.653384609013796,-14.314305118608473,10.01208138717413
1758301037732630300,10.09363037109375,-4.585251568508148,-22.427637289762497,10.499521205246447
1758301037742604300,10.103604248046874,-11.316294684493542,-22.22609881837368,4.587543771098554
1758301037752578300,10.113578369140624,-4.590981052070855,-14.276112458336353,-3.583734100806713
1758301037762553000,10.123552978515624,2.8779788640677926,-10.189025515532492,-5.1581555011153215
1758301037772527000,10.133527099609376,4.063080044272541,-7.475729848664999,-4.137632596431672
1758301037782501000,10.143501220703126,1.190535407147929,-4.897126729881763,-3.519069028672576
1758301037792475100,10.15347509765625,-0.7674849130082875,-3.217331230431795,-3.229245247848332
1758301037802450400,10.163450439453126,-1.6082546963274478,-3.5173411819666622,-3.6695737706556915
1758301037812424400,10.173424560546875,-1.6590606083266437,-5.188773342218995,-5.232186367487907
1758301037822398500,10.1833984375,-2.3710716905899343,-6.418048595193028,-6.152165954187512
1758301037832372500,10.19337255859375,-4.251606473875046,-7.316385089883208,-4.887650461006165
1758301037842346500,10.203346435546875,-6.218590437209606,-7.9261156551063054,-3.0104338623583313
1758301037852321300,10.2133212890625,-6.660543930870294,-7.206137247225642,-2.788639077143371
1758301037862295300,10.22329541015625,-5.2371676630318165,-4.583692648628354,-3.1126345921605822
1758301037872269300,10.233269287109374,-2.1941519660204647,-0.8548860600203275,-2.7157737474188206
1758301037882243300,10.243243408203124,-0.16093465832173823,2.7388106318742036,-2.2335361741647124
1758301037892218400,10.25321826171875,0.9759475576370954,6.294407602477073,-1.8613262249462306
1758301037902192400,10.2631923828125,0.72287164510414,9.484784190487861,-1.0760424742665142
1758301037912166400,10.27316650390625,-1.6265023006796835,12.076392921316623,0.4196318448025733
1758301037922140400,10.283140380859376,-3.1970097424149513,14.124927040612697,1.5308260042101145
1758301037932115200,10.293115234375,-2.317799388477206,15.358420203542709,1.4103987128436564
1758301037942089200,10.303089111328125,-1.1773060693491249,15.899598626065254,0.13013287548590452
1758301037952063200,10.313063232421875,-1.014792544338107,15.62671575090885,-1.2082264005307108
1758301037962037200,10.323037353515625,-0.5735165115475654,13.587876511675118,-1.8157604055576024
1758301037972012300,10.33301220703125,0.45447336801588534,9.834737445843219,-1.7960785306185483
1758301037981986300,10.342986328125,2.8314994369655846,6.835204916727543,0.17135860157730057
1758301037991960300,10.352960205078125,10.335887809360027,4.892155955731869,4.8401285391137
1758301038001934300,10.362934326171874,15.30375337833166,0.6984533892929553,10.909788936311006
1758301038011909000,10.3729091796875,7.018318089109659,-13.23031278131604,18.20374182963371
1758301038021883100,10.382883056640624,1.5740309396862984,-27.193751621377466,7.208673487704992
1758301038031857200,10.392857177734374,2.0698586468756197,-19.956150145351884,-9.172537273192406
1758301038041831200,10.4028310546875,2.12526781488657,-8.011471048569678,-5.395659604376554
1758301038051806200,10.41280615234375,3.6745161954939363,-1.2503075196087359,-1.4825656850405036
1758301038061779500,10.422779541015625,2.9781530564785004,0.6348948170959949,-0.4812997444147244
1758301038071753500,10.43275341796875,2.7016800478756426,2.5431255626887084,-1.0704363978877662
1758301038081727500,10.4427275390625,2.0546178231239316,2.2578204283326864,-1.7056429112814366
1758301038091702500,10.45270263671875,-1.8379881655871868,-1.5996283222794532,-0.6161740422740578
1758301038101676500,10.462676513671875,-5.176477924269437,-4.526379692822695,1.6787407297000287
1758301038111650600,10.472650634765625,-3.9880736108660697,-7.027700249961018,4.361199652016163
1758301038121624600,10.48262451171875,-2.7432898231148717,-10.033810403901338,5.625857184016704
1758301038131599400,10.492599365234375,-4.641862513524294,-12.367428708279132,3.1352678642511367
1758301038141573400,10.502573486328124,-6.025608781763911,-12.749212687659263,-2.502252285030484
1758301038151547400,10.51254736328125,-4.253187605586648,-10.409411310732365,-6.359224065780639
1758301038161521400,10.522521484375,-2.027830938485265,-7.178617372137308,-7.455504806759953
1758301038171496400,10.532496337890626,-0.34995084420256317,-4.107548131552338,-9.21055633046329
1758301038181470500,10.542470458984376,0.24294315251000223,-0.959139046177268,-10.309819302123785
1758301038191444500,10.552444580078125,0.5453548314243555,1.729336067688465,-8.296146068328618
1758301038201418500,10.56241845703125,1.3891964964695274,3.1971617181062695,-5.395576602268219
1758301038211393300,10.572393310546875,0.6805570825964212,3.120312871703505,-1.937435943419486
1758301038221367300,10.5823671875,0.16752923428118227,1.0439286224514246,1.0975941616654394
1758301038231341300,10.59234130859375,0.15366159857884049,-1.1035755741626023,2.5096149227529763
1758301038241315300,10.6023154296875,-0.6085106680393219,-1.6564906117081641,2.920694554722309
1758301038251290400,10.612290283203125,-1.148796379505843,-0.38582887085676193,4.041265687349439
1758301038261264400,10.622264404296875,-0.803278622379899,2.2096908959358927,5.404818477866053
1758301038271238400,10.63223828125,-1.0122896216064692,5.148437824699283,5.580962395757436
1758301038281212400,10.64221240234375,-0.9503590890027582,8.026933406117559,4.213251608778536
1758301038291187500,10.6521875,-0.4228127398610115,10.207616818755865,2.583628837990761
1758301038301161500,10.662161376953126,-0.23578334388323127,11.904923424977063,1.1749712697260082
1758301038311135500,10.672135498046876,-0.20881818006820976,13.74951551887393,0.14221843181075527
1758301038321109500,10.682109619140626,-0.5019675251185893,14.92290229588747,-0.8153411083564162
1758301038331084500,10.69208447265625,-0.21333120051324367,14.774904860550164,-1.509097572004795
1758301038341058600,10.70205859375,2.5062813944160935,13.62905374071598,-1.711499820616096
1758301038351032600,10.712032470703125,5.861110878002643,11.917019520962238,-1.0222177259027958
1758301038361006600,10.722006591796875,9.564061140820383,9.648491236132383,0.4639485409129411
1758301038370981400,10.7319814453125,11.163100849556923,6.65072337860167,2.468865271474421
1758301038380955400,10.741955322265625,9.095142483344674,2.4041969844698903,3.651230012452602
1758301038390929400,10.751929443359375,4.429759978023172,-3.733068337705731,3.4985081789419055
1758301038400903400,10.7619033203125,-2.815517439457774,-10.120102201431989,4.476354555937648
1758301038410878500,10.77187841796875,-9.354030735418199,-17.467933984458444,6.453658253234624
1758301038420852500,10.7818525390625,-8.034870044335722,-20.12354786220789,8.99583864402771
1758301038430826500,10.791826416015626,-1.2965952235311269,-12.345824779236317,10.614300261592865
1758301038440801300,10.80180126953125,5.253151998627185,-4.124047430932522,5.036123697161674
1758301038450775300,10.811775390625,6.410385513219237,-1.0889368079572916,-1.0260711864605545
1758301038460749300,10.821749267578125,2.3366620559878646,-1.3908388568490744,-3.18177476388216
1758301038470723300,10.831723388671875,-1.0939075821071862,-2.9491946730196474,-4.473818899980187
1758301038480698400,10.841698486328125,-1.338185563417524,-4.765002570980787,-5.640556740498543
1758301038490672400,10.85167236328125,-0.13796177901327608,-6.948360755786299,-7.720691866716742
1758301038500646400,10.861646484375,0.7053793891638517,-8.530533500874043,-7.6024606240898365
1758301038510620400,10.871620361328125,-0.10993789992555976,-9.335997066077589,-6.220643278086185
1758301038520595500,10.881595458984375,-2.7881384341448543,-9.415565692833065,-4.279855247759818
1758301038530569500,10.891569580078125,-5.0226235795974725,-8.801800757527351,-2.396883446586132
1758301038540543500,10.90154345703125,-6.027453532847762,-7.153446106001734,-1.5110017981909214
1758301038550517200,10.911517333984374,-5.717915289989113,-4.342709471079707,-1.2041859660334884
1758301038560492500,10.921492431640624,-4.0411604734092945,-1.0837871701091528,-1.0070070050284265
1758301038570466600,10.931466552734374,-1.8007886080056428,2.1061405050903557,-0.7151004265807569
1758301038580440600,10.941440673828126,0.024838600115105507,5.187365813508629,-0.8448667703092098
1758301038590414600,10.95141455078125,1.0418239052571356,8.423826691824198,-1.060349303637445
1758301038600389400,10.961389404296876,0.6336514659713953,11.196053855609893,-0.44776499295104294
1758301038610363400,10.97136328125,-1.0477519801318644,13.325131584173441,0.3295690773658454
1758301038620337400,10.98133740234375,-2.7765438579410313,14.769277083796261,0.2531988813254982
1758301038630311400,10.9913115234375,-3.2742280066519975,15.647002167612314,-0.38841329785939305
1758301038640286500,11.001286376953125,-2.6164935812383887,16.182311990362404,-0.6661977909196167
1758301038650260500,11.011260498046875,-1.3322171565324068,15.752965464818477,-0.622757220056653
1758301038660234500,11.021234375,-0.13556874639689923,12.945216905796528,-0.8715070130188017
1758301038670208500,11.03120849609375,0.5147773953963071,9.404003849855064,-1.1701884193636476
1758301038680183300,11.041183349609375,0.9577152239192277,7.305096218627691,-0.3522881280437112
1758301038690157300,11.0511572265625,1.211524492228031,6.618840632128715,1.0959981246456503
1758301038700131300,11.06113134765625,1.6081962441384792,6.498458348947763,2.1002979165419937
1758301038710106400,11.0711064453125,4.229659430482983,6.086822252139449,3.1552441920921206
1758301038720080400,11.081080322265626,12.199431271964311,4.531632206523418,5.586560361894965
1758301038730054400,11.091054443359376,11.626592805808782,-0.4787684358388185,7.8274939528346055
1758301038740028400,11.1010283203125,0.9138514592081308,-7.142592703554034,8.177932945880293
1758301038750003500,11.11100341796875,-7.187327917337417,-15.041822105300426,4.30880807826072
1758301038759977200,11.120977294921875,-5.38223898178935,-19.923003078031538,-5.165494757962226
1758301038769951200,11.130951171875,7.091535301011801,-17.503290544521807,-8.121424876716732
1758301038779925200,11.14092529296875,11.45009291408658,-9.028888096192478,-2.003980107298493
1758301038789900500,11.150900634765625,0.3112824196448549,-3.6812311829626556,-0.5311577811045571
1758301038799874600,11.16087451171875,-6.197765091323852,-1.7790128295272587,-4.634440546829998
1758301038809848600,11.1708486328125,-6.812988408744335,-2.6448908236831423,-6.150940211784839
1758301038819823600,11.18082373046875,-4.871399583429098,-4.961981187108159,-3.0647780314862727
1758301038829797600,11.190797607421874,-4.025682333770394,-7.480763751178979,0.8485589758906513
1758301038839771400,11.200771484375,-5.994131693482399,-9.64560662060678,3.2698803328365087
1758301038849745400,11.210745361328126,-5.941045999982952,-10.274552758431435,2.362164892165363
1758301038859720400,11.220720458984376,-5.039334475901723,-8.90452521894276,-1.10737043640092
1758301038869694500,11.230694580078126,-3.9101112502634523,-6.249556653359532,-2.9844430965334174
1758301038879668500,11.24066845703125,-1.9536019191920757,-3.8126474858552215,-4.385729989899695
1758301038889642500,11.250642578125,0.2571252609889954,-1.9729151069492101,-5.719307036608457
1758301038899617500,11.260617431640625,0.5392102642547338,0.3549848197817802,-4.732884554447233
1758301038909591600,11.270591552734375,0.2668511937767267,1.9850871907800436,-2.4282699339747427
1758301038919565300,11.2805654296875,0.06051978902295232,1.922666682702303,-0.19316767953708766
1758301038929539300,11.290539306640625,-1.5022944678612054,0.8110749753445387,1.4686422274976967
1758301038939514400,11.300514404296875,-2.422761253555864,-0.36938042488098144,1.9443620894208549
1758301038949488400,11.31048828125,-2.271009726382047,-0.6549456714779138,1.971533297201991
1758301038959462400,11.32046240234375,-0.9636398647278547,0.5996744506329298,2.0029362973339855
1758301038969437400,11.3304375,0.14523615393042563,3.275205911773443,2.571695239090919
1758301038979411500,11.340411376953124,0.5666651843480766,6.643865183269977,2.941384876051545
1758301038989385500,11.350385498046874,0.876891409470886,9.391543012210727,2.3715663422390816
1758301038999359500,11.360359375,0.9275485606491565,11.237342143809794,1.44521166754961
1758301039009334300,11.370334228515626,0.657669105092436,13.029502624201774,1.2308289121568203
1758301039019308300,11.380308349609376,0.25337737969756124,14.313999998182057,1.103510619167611
1758301039029282300,11.3902822265625,-0.7362485746800899,14.337611175394057,0.385531531878002
1758301039039256300,11.40025634765625,-0.8804196566622704,13.348141872882842,-0.7008494906492531
1758301039049231600,11.410231689453125,-0.10998020469732582,12.220896084797381,-1.2397424325831234
1758301039059205600,11.42020556640625,0.3587112198937684,11.208112542194128,-0.7119345098957419
1758301039069179600,11.4301796875,0.24010522567033765,9.833110136902333,0.6970219682503491
1758301039079153700,11.440153564453125,2.0156115083813666,8.039168618312477,2.664890240138769
1758301039089128700,11.450128662109375,6.711741618666053,5.517062462776899,4.394527921122313
1758301039099102700,11.460102783203125,10.357909087032079,2.509266547706723,5.702430720609426
1758301039109076700,11.47007666015625,9.849950212544202,-1.210491057527065,6.017781449139118
1758301039119052000,11.480052001953124,8.334932018318773,-6.691013887935877,6.7977411552518605
1758301039129025800,11.49002587890625,3.6301316948443647,-15.375153896200656,10.380618931490183
1758301039138999800,11.499999755859376,-10.023568411350249,-26.364109308207034,13.804692047172784
1758301039148973800,11.509973876953126,-10.77947211909294,-25.980906109678745,4.649312829530238
1758301039158948900,11.519948974609376,3.066284928917885,-17.79129266287684,-9.929057067006825
1758301039168923000,11.5299228515625,7.258012395891547,-13.82819684140086,-11.66479364938736
1758301039178897000,11.53989697265625,0.8957296001274138,-11.224521240681408,-7.253028762260079
1758301039188871000,11.549870849609375,-4.060317593821883,-8.559359782385826,-4.0294481160446995
1758301039198846000,11.559845947265625,-3.1097511456787585,-6.557894288256764,-3.4465374609470367
1758301039208820000,11.569820068359375,-1.3560446068435907,-5.9150271771073335,-5.303119267845154
1758301039218794000,11.5797939453125,-1.5006085606008768,-5.527446494147181,-6.699571288400888
1758301039228768800,11.589768798828125,-3.216795223858952,-4.848654083135724,-6.100504740533232
1758301039238742800,11.59974267578125,-4.985167416906356,-4.096777731212973,-4.60498035132885
1758301039248716800,11.609716796875,-5.300538603702187,-2.9940070436924695,-4.079067010216415
1758301039258690800,11.61969091796875,-3.845742530727386,-1.1798597724199293,-4.380421654358506
1758301039268665900,11.629665771484374,-1.574454718056321,1.2399503762453794,-3.7239042035192247
1758301039278639900,11.639639892578124,0.3468464849790558,4.028149016144871,-2.0060769334472717
1758301039288614000,11.64961376953125,1.622571975493431,7.074784072697162,-0.6721800071343779
1758301039298588000,11.659587890625,1.7098247270107267,9.788031224247813,0.17452313002282752
1758301039308562700,11.669562744140626,0.6472545324534177,11.987877602517605,-0.035287184621579946
1758301039318536700,11.67953662109375,-1.6012581154383718,13.724680352824926,-0.5348908301530405
1758301039328510700,11.6895107421875,-3.775775260531902,14.689860432732104,-1.1375743629414587
1758301039338484700,11.699484619140625,-3.886538066974282,15.03221022734642,-1.4930813799664377
1758301039348459800,11.709459716796875,-2.4329770887523887,14.861798715627193,-0.5686124459583312
1758301039358433800,11.719433837890625,-1.046117072406411,13.30114631295204,0.3034444925608113
1758301039368407800,11.72940771484375,0.7992021667212247,11.463117230832577,0.7881399438284337
1758301039378382800,11.7393828125,2.4156904383867976,10.038549707382916,1.6266275344945489
1758301039388356900,11.74935693359375,4.178223842278123,8.810262880924343,3.722818746370077
1758301039398331000,11.759330810546874,8.479065179443358,7.009605790343881,7.098009465461969
1758301039408305000,11.769304931640624,8.802116983869672,2.590750652694702,10.328678316372633
1758301039418280000,11.779280029296874,0.6992039153993129,-5.24046085935831,9.639202014261484
1758301039428254000,11.78925390625,-6.1336933089077466,-18.865556217837334,1.7861325984045862
1758301039438228000,11.79922802734375,-0.37372685658745464,-26.69845816719532,-7.246460489785671
1758301039448202000,11.809201904296875,7.929909202170371,-19.453589915037153,-6.39930239366889
1758301039458176800,11.8191767578125,8.932271888524294,-8.025088070511817,-4.655570428620279
1758301039468150800,11.82915087890625,2.4986463694930077,-1.3804185851216315,-4.886937636561692
1758301039478124800,11.839124755859375,-1.3470423852205275,2.374662262427807,-4.744571485109627
1758301039488098800,11.849098876953125,-3.7081507540702816,1.9016437684178351,-3.904102949759364
1758301039498073900,11.859073974609375,-4.711315404456854,-0.7879343382537365,-1.6132012128189206
1758301039508048000,11.8690478515625,-4.351876527875661,-3.6965532552570104,1.7718015829741953
1758301039518022000,11.87902197265625,-4.665764198115467,-7.338449622175097,3.7903023830562828
1758301039527996700,11.88899658203125,-5.514793933323025,-10.973383748865126,3.082414518202841
1758301039537970700,11.898970703125,-5.950400103783607,-12.234613644504547,-0.6547500027753412
1758301039547944700,11.90894482421875,-6.864370805457234,-11.50554182958603,-3.8805209986418485
1758301039557918700,11.918918701171876,-6.565069294452667,-8.6136057518363,-4.7947205406352875
1758301039567893800,11.928893798828126,-3.2975013302117584,-4.215835487791896,-5.795424646127223
1758301039577867800,11.93886767578125,0.7927373546212911,-0.10895020406246185,-7.060063473427295
1758301039587841800,11.948841796875,2.2610002274125813,3.7793490273654458,-5.586138921612501
1758301039597815800,11.95881591796875,1.3258173724927007,6.096728729125857,-2.3578557967945932
1758301039607790600,11.96879052734375,-0.16422215555980801,5.282705425369739,0.13825966598130762
1758301039617764600,11.9787646484375,-1.239354163917899,2.642495452979207,1.1253562480118124
1758301039627738600,11.988738525390625,-1.3674497979551552,0.44806291645169255,1.3775515052527187
1758301039637714000,11.9987138671875,-0.5734048678666352,0.03551555001735687,1.9197018415473401
1758301039647688000,12.00868798828125,0.21719138307273386,0.7348895612865686,2.0857322155728935
1758301039657662000,12.018661865234375,0.833199859521538,2.1832927183538673,2.4199741070553658
1758301039667636000,12.028635986328124,0.9253710704796015,4.9464574547618625,2.7985037608146666
1758301039677610800,12.03861083984375,0.9405131830971687,7.811424277043342,1.9795153819970785
1758301039687584800,12.048584716796874,0.7863923695087432,9.659047116938233,1.2588152357131241
1758301039697558800,12.058558837890626,0.6824233879249543,11.25827737981081,1.3043458376578987
1758301039707532800,12.06853271484375,0.1736140340875834,12.969427802467346,1.2802645587161183
1758301039717507800,12.0785078125,-0.5261346557129174,13.546931922346353,0.9038407911948859
1758301039727481900,12.08848193359375,-0.7204413492172956,12.898517113941907,0.2788258918719366
1758301039737455900,12.098455810546875,0.1950952135335654,11.729967840087413,-0.3500118536747992
1758301039747430000,12.108429931640625,2.8003531880736348,10.139652120554446,-0.37611718579009173
1758301039757405000,12.118405029296875,6.544914979696274,8.172528456488251,0.921414076482132
1758301039767378700,12.128378662109375,10.340256525963545,5.207985992211103,2.5061808566510675
1758301039777352700,12.138352783203125,11.285720682531595,1.267642685291171,3.6956048684909937
1758301039787327700,12.14832763671875,9.729141812905668,-3.5614462811529632,4.9359682094514366
1758301039797301800,12.1583017578125,6.617172406655549,-9.929350496995449,6.527849278604984
1758301039807275800,12.16827587890625,-0.09837846810035407,-18.33871494822502,8.357768119505048
1758301039817249800,12.178249755859374,-8.489075701326131,-24.032210667228696,10.822370180577039
1758301039827224800,12.188224853515624,-9.374792368417978,-20.658439167284964,3.9656098501235246
1758301039837198800,12.19819873046875,-0.4123591503858566,-12.609425446784496,-3.471850181379914
1758301039847172900,12.2081728515625,5.3541316622018815,-8.544783560022712,-4.089113187934458
1758301039857146600,12.218146728515626,3.9892484998643396,-6.363592782384157,-3.2888921995595095
1758301039867121700,12.22812158203125,0.147673025688529,-4.912447633132338,-3.3180595495939254
1758301039877095700,12.238095703125,-1.7144547248989344,-4.733818328166008,-5.205761301898956
1758301039887069700,12.248069580078125,-1.24356739769876,-5.706311945956945,-8.84805280561447
1758301039897043700,12.258043701171875,-0.948373833469674,-5.232352371704578,-8.845663864651321
1758301039907019000,12.26801904296875,-1.969589761918783,-5.473605598366261,-7.265277418458461
1758301039916993000,12.277992919921875,-3.9075352622956037,-5.399123481094837,-4.61564612224996
1758301039926966800,12.287966796875,-4.90556254979372,-4.525011327078938,-2.9823595682576296
1758301039936941800,12.29794189453125,-4.737834578070045,-2.6762580218493937,-2.427360856305808
1758301039946915800,12.307915771484375,-3.437674355533719,0.06171908181011677,-2.3995346917472777
1758301039956889900,12.317889892578124,-1.1916495789349077,3.24054084110558,-2.1006077131435275
1758301039966864000,12.32786376953125,0.7041185754477978,6.198657071727514,-1.6218679188773035
1758301039976839000,12.3378388671875,1.8793267226696013,8.86428147135973,-0.8364245206564664
1758301039986813000,12.34781298828125,1.522182679027319,11.13648873696327,0.18699790486097334
1758301039996787000,12.357786865234376,-0.41056642175018787,13.161363748252391,0.9953450626768171
1758301040006761000,12.367760986328125,-2.9377953271269797,14.961246931850908,1.4903522472634911
1758301040016735700,12.37773583984375,-4.13460623434782,16.0129023491621,1.3380803494773805
1758301040026709800,12.387709716796875,-3.202667914307117,15.981899308133125,0.7958985220659524
1758301040036683800,12.397683837890625,-1.2971978655993939,15.320321066772937,0.7263210549056529
1758301040046657800,12.40765771484375,0.3213643262634054,13.51353351061344,0.21122487588375805
1758301040056632800,12.4176328125,1.365443718829751,10.90743097500801,0.16583733567148445
1758301040066607400,12.427607421875,2.026037625327706,8.60433757275343,1.1393600773144512
1758301040076581000,12.4375810546875,2.2441215733259914,6.676231913867593,2.510925128568709
1758301040086556200,12.44755615234375,6.496103310254216,5.060928468072414,4.833137072791159
1758301040096530200,12.4575302734375,11.340727699482441,1.5809657073855399,8.280946161109208
1758301040106504200,12.467504150390624,5.6356911802887915,-8.054096138331294,9.252451352384686
1758301040116478200,12.477478271484374,-5.3931660339951515,-24.035869774258135,-0.46248277920931574
1758301040126453200,12.487453369140624,-4.451408915251493,-25.53504917883873,-12.012991000986098
1758301040136427300,12.49742724609375,6.632675096213817,-15.581113691163063,-11.463418844127654
1758301040146401300,12.5074013671875,11.421889732909202,-6.037127370122075,-6.369817355987429
1758301040156375300,12.517375244140625,5.083515562933683,-0.683453973081708,-2.4292066303029656
1758301040166350000,12.52735009765625,-0.2980383592009544,1.0411176566839218,-2.8890742585778235
1758301040176324000,12.537323974609375,-4.373119222390652,-1.429536544033885,-4.409192406290769
1758301040186298000,12.547298095703125,-6.277663388425111,-4.854244450488686,-2.8899513336732983
1758301040196273400,12.5572734375,-5.243697941583394,-7.422111071202158,0.16775025662072002
1758301040206247400,12.567247314453125,-4.932836341166496,-10.449442876869439,3.083098993335664
1758301040216221400,12.577221435546875,-5.654277807337046,-12.656571813362836,3.2115643374681473
1758301040226195500,12.587195556640625,-5.889214105936884,-11.67971181705594,-0.36097163910642266
1758301040236170200,12.597170166015625,-6.712408558142185,-8.908057484722137,-3.6598701227650046
1758301040246144300,12.607144287109374,-4.831394905298948,-5.602577430716156,-5.082249488520622
1758301040256118300,12.6171181640625,-0.5085094941079616,-2.6842542813003063,-6.532516685894131
1758301040266092300,12.62709228515625,3.5737972286820407,0.7693027030199766,-6.987434290546179
