time,seconds_elapsed,z,y,x
1758301027665009000,0.0260087890625,8.014941355028748,5.59788839611709,-0.7711980152472854
1758301027674983000,0.03598291015625,8.020151783153414,5.588380563059449,-0.7858498601298779
1758301027684956700,0.045956787109375,8.02644591486156,5.576727534666657,-0.8041541631054133
1758301027694930700,0.0559306640625,8.033397633695602,5.561612383121251,-0.8386759528450667
1758301027704904700,0.06590478515625,8.041096956026553,5.541784816101193,-0.8942973753672092
1758301027714878700,0.075878662109375,8.047403947216273,5.521133073216676,-0.9626870940476655
1758301027724852700,0.085852783203125,8.048548441076278,5.507085843163728,-1.03114549405016
1758301027734826800,0.09582666015625,8.041413766890765,5.506733376464247,-1.0871709673285483
1758301027744800800,0.10580078125,8.025407219463586,5.522183459052443,-1.1263720739908516
1758301027754774800,0.11577490234375,7.995924519869685,5.555269151574373,-1.172413182741031
1758301027764748800,0.125748779296875,7.948186032617092,5.6114463813483715,-1.2281662688188255
1758301027774722800,0.135722900390625,7.902885586166382,5.669289498507976,-1.2545686841845511
1758301027784696800,0.14569677734375,7.877513829022646,5.71115061815977,-1.2238945097837597
1758301027794670800,0.1556708984375,7.866374010848999,5.740670142632722,-1.155530363935977
1758301027804644900,0.165644775390625,7.862481095063686,5.762358827349543,-1.07097971098423
1758301027814619000,0.175618896484375,7.860918668052554,5.7803089100599285,-0.982019717157632
1758301027824593000,0.185593017578125,7.855745064806937,5.798505661007762,-0.9137756905581802
1758301027834567000,0.19556689453125,7.845117287808656,5.81837122195065,-0.8781111605241895
1758301027844541000,0.205541015625,7.832436669933795,5.836682539188861,-0.8697462869565934
1758301027854515000,0.215514892578125,7.819643823856115,5.852533019271493,-0.8783059524439275
1758301027864489000,0.225489013671875,7.806457594546675,5.867208610355854,-0.8974784896213561
1758301027874462700,0.235462646484375,7.7923589265674345,5.8811120480239385,-0.9284632643412798
1758301027884435700,0.245435791015625,7.775617635124921,5.895181489908695,-0.9782581726670264
1758301027894409700,0.25540966796875,7.754147561594843,5.910522851425409,-1.0532312152605503
1758301027904383700,0.2653837890625,7.728820228114723,5.926235384342074,-1.1469354079395533
1758301027914357800,0.275357666015625,7.70441410113275,5.938469427493215,-1.2437722726210951
1758301027924331800,0.285331787109375,7.687963317069411,5.942754557466507,-1.3226001640118659
1758301027934305800,0.295305908203125,7.6849033449769015,5.937217381605506,-1.3645895862184465
1758301027944279600,0.305279541015625,7.693430350303649,5.925522852158546,-1.3673707413695753
1758301027954253600,0.315253662109375,7.70493666370213,5.916106204515695,-1.3431409938678145
1758301027964227600,0.3252275390625,7.709494180876016,5.917521916532516,-1.3103525307267903
1758301027974201600,0.33520166015625,7.701650481638312,5.933967439898848,-1.2817929373271764
1758301027984175600,0.345175537109375,7.679866519853472,5.966016190588474,-1.2635966247707604
1758301027994149600,0.355149658203125,7.645361608183383,6.010706980708241,-1.2610454789832233
1758301028004123600,0.36512353515625,7.6047998806923625,6.059109484827518,-1.2745944041252135
1758301028014097700,0.37509765625,7.565924498853087,6.101649234393238,-1.3027063998878001
1758301028024071700,0.38507177734375,7.534489496147632,6.132151340162753,-1.3411059809088706
1758301028034045700,0.395045654296875,7.513500484132766,6.1487044155567885,-1.3824378159895538
1758301028044019700,0.405019775390625,7.50362790941596,6.152423143818974,-1.4190309321105479
1758301028053993500,0.414993408203125,7.506410233610868,6.142987206953763,-1.4449588618323206
1758301028063967500,0.424967529296875,7.524865343233943,6.118122814810276,-1.4544275319233535
1758301028073941500,0.43494140625,7.560675492283702,6.07575900633335,-1.4462768125630914
1758301028083915500,0.44491552734375,7.610732193350792,6.017819443061947,-1.425827898774296
1758301028093889500,0.4548896484375,7.66532361523807,5.953814880663156,-1.4018838363461195
1758301028103863300,0.46486328125,7.706812394446134,5.904242163720727,-1.3839632719911634
1758301028113837300,0.47483740234375,7.72106946785748,5.887198674461245,-1.377085787437111
1758301028123811300,0.484811279296875,7.707952212131023,5.900334050366282,-1.394243842986971
1758301028133785300,0.494785400390625,7.671903578150272,5.9392170309901235,-1.4275782495729625
1758301028143759400,0.50475927734375,7.627672222235798,5.990312427455186,-1.4509177702367304
1758301028153732400,0.514732421875,7.584203082865476,6.0496396456927055,-1.4325211128026245
1758301028163706400,0.524706298828125,7.532688584205507,6.126795950609445,-1.3752689472734927
1758301028173680400,0.534680419921875,7.460470904734731,6.228124573752284,-1.3123362518899142
1758301028183654400,0.544654296875,7.362370595988631,6.350207815632224,-1.2809163006231188
1758301028193628400,0.55462841796875,7.2528060594201085,6.473132769033312,-1.2906370457790792
1758301028203602400,0.5646025390625,7.153966330483556,6.567846942472458,-1.361815445329994
1758301028213576200,0.574576171875,7.0745087628871195,6.619969928419589,-1.5158216195628047
1758301028223550200,0.58455029296875,7.017416171833872,6.6274845418334,-1.7328312163278459
1758301028233524200,0.594524169921875,6.983304058873653,6.59562985241115,-1.975224991326779
1758301028243498200,0.604498291015625,6.969514018452167,6.534592323124408,-2.212548769585043
1758301028253472300,0.61447216796875,6.96283176420927,6.460989911296963,-2.438232232801616
1758301028263446300,0.6244462890625,6.954861223721504,6.391444081383943,-2.636234346757829
1758301028273420300,0.634420166015625,6.949185516172647,6.329747211405635,-2.7952640482410787
1758301028283394300,0.644394287109375,6.94524466959238,6.287600845071673,-2.8982819396451114
1758301028293368300,0.654368408203125,6.936152431598305,6.279281929537653,-2.937821046090126
1758301028303342300,0.66434228515625,6.930642728266119,6.304194252476096,-2.8971903450161216
1758301028313316400,0.67431640625,6.937414998880028,6.345352776816487,-2.7891134166568516
1758301028323290400,0.684290283203125,6.954380746728181,6.388665848842263,-2.644224176467955
1758301028333264400,0.694264404296875,6.968020565024018,6.430895801806449,-2.502129243172705
1758301028343238400,0.70423828125,6.968495196798443,6.469162696358561,-2.4000807813227176
1758301028353212400,0.71421240234375,6.955469126486778,6.4979591672539705,-2.3597385418012737
1758301028363186400,0.7241865234375,6.939376069819927,6.512202212139964,-2.367840745844692
1758301028373160400,0.734160400390625,6.937311538505554,6.5006549822092055,-2.4053229197598993
1758301028383133400,0.744133544921875,6.966452877315878,6.47414399190247,-2.3925682137355206
1758301028393107500,0.754107421875,7.035463869699836,6.455243476599454,-2.2366209884375334
1758301028403081500,0.76408154296875,7.135435233014822,6.444008965879679,-1.931499100716412
1758301028413055500,0.774055419921875,7.238409869799018,6.425599448963999,-1.577172890973836
1758301028423029500,0.784029541015625,7.275386724540591,6.399340972113609,-1.5124743549615143
1758301028433003500,0.79400341796875,7.256312606236338,6.381435897588729,-1.671403518679738
1758301028442977500,0.8039775390625,7.224797524031996,6.38523821248114,-1.7892502920337021
1758301028452951600,0.81395166015625,7.164566050431132,6.432659304347634,-1.8601807081729174
1758301028462925300,0.82392529296875,7.098131046015024,6.496459868606925,-1.8928641035042701
1758301028472899300,0.8338994140625,7.036196275627613,6.562705487930774,-1.8955822764217853
1758301028482873300,0.843873291015625,6.9880889550626275,6.6200003235578535,-1.8741918439991772
1758301028492847400,0.853847412109375,6.9502873399347065,6.671195673266053,-1.8327682389818132
1758301028502821400,0.8638212890625,6.913967487797141,6.72364482242763,-1.777651185785234
1758301028512795400,0.87379541015625,6.875756707346439,6.783154411494731,-1.697990058440715
1758301028522769400,0.883769287109375,6.8419748492538925,6.848132787361741,-1.5687107675768435
1758301028532743400,0.893743408203125,6.826129045346379,6.906389746019244,-1.369717012234777
1758301028542717400,0.903717529296875,6.840498346960544,6.9480433604002,-1.0500746509257703
1758301028552691500,0.91369140625,6.8579410646706815,6.9854849100440735,-0.584832270810008
1758301028562665500,0.92366552734375,6.828443167507648,7.038399338629842,-0.06066761826211586
1758301028572639500,0.933639404296875,6.729764182090759,7.122898992046713,0.38073976755682376
1758301028582612200,0.9436123046875,6.572668079018593,7.244589435216784,0.6973835681043565
1758301028592586200,0.953586181640625,6.377649949309229,7.387012869814038,0.9633310910396278
1758301028602560300,0.963560302734375,6.152756321296096,7.53788732189238,1.222386662504077
1758301028612534300,0.9735341796875,5.942535946279764,7.66577252804935,1.4465752109877765
1758301028622508300,0.98350830078125,5.8052387686550615,7.732287611964344,1.6374720229834316
1758301028632482300,0.993482421875,5.726917511612177,7.7466861396729945,1.8334857396014033
1758301028642456300,1.003456298828125,5.676899973511696,7.719742603167891,2.085369227479398
1758301028652430300,1.013430419921875,5.615508808481693,7.657731260412931,2.448593321687728
1758301028662404400,1.023404296875,5.495222386890649,7.578776966163516,2.921481613446772
1758301028672378400,1.03337841796875,5.265240495827793,7.502486338165402,3.487167577499151
1758301028682352400,1.043352294921875,4.925453245177865,7.430677824017405,4.085990379738807
1758301028692326400,1.053326416015625,4.500470760062337,7.34327426585257,4.689612983475625
1758301028702300400,1.063300537109375,4.020692854920029,7.224763037240505,5.273256044501066
1758301028712274400,1.0732744140625,3.512555701255798,7.060554471814632,5.829315225291252
1758301028722248200,1.083248291015625,3.0066689568668603,6.828232739627361,6.364397669026255
1758301028732222200,1.09322216796875,2.534274732235074,6.508005929493904,6.884308262592554
1758301028742196200,1.1031962890625,2.0892773408338425,6.093898474135995,7.393896784108877
1758301028752170200,1.113170166015625,1.6517308499604462,5.578735367357731,7.894294283431768
1758301028762144300,1.123144287109375,1.1984239684406668,4.947261756882071,8.382050912368298
1758301028772118300,1.1331181640625,0.7249887833885849,4.182689004993438,8.840243008646368
1758301028782091300,1.14309130859375,0.30187399184107777,3.2857910186737773,9.234870102986692
1758301028792065300,1.153065185546875,-0.007213620031595929,2.2918987851537764,9.535068855091929
1758301028802039300,1.163039306640625,-0.20654738559201358,1.256355859862268,9.723645553576945
1758301028812013300,1.173013427734375,-0.3605806670274585,0.24860070334766057,9.796863350000978
1758301028821987300,1.1829873046875,-0.5635613731138408,-0.6837536866806447,9.766538354364037
1758301028831961300,1.19296142578125,-0.8529390906710177,-1.5496541849292813,9.645800097352266
1758301028841935400,1.202935302734375,-1.1790694257598369,-2.3779421608813105,9.440633498594165
1758301028851909400,1.212909423828125,-1.4616764801383018,-3.1899031252801415,9.15742329069078
1758301028861883400,1.22288330078125,-1.6583822706736624,-3.9890088458895683,8.803861197188496
1758301028871857400,1.232857421875,-1.7241307541303335,-4.762468376328051,8.397420915457605
1758301028881831400,1.24283154296875,-1.654582001607865,-5.471372724747657,7.968491154021025
1758301028891805400,1.252805419921875,-1.4605331553220748,-6.0763598948359485,7.557453607627749
1758301028901779500,1.262779541015625,-1.1857859475985169,-6.551572099497914,7.200083354014158
1758301028911753500,1.27275341796875,-0.8419904842205345,-6.896388576486706,6.921073520410061
1758301028921727500,1.2827275390625,-0.4090026430321857,-7.115951364865898,6.7354515800774095
1758301028931701500,1.292701416015625,0.09846389049463905,-7.214080899706483,6.642118631863593
1758301028941675500,1.302675537109375,0.6288377820793539,-7.209004327094554,6.618550124749541
1758301028951649500,1.3126494140625,1.1323829317782073,-7.136643439760804,6.629964668211341
1758301028961623600,1.32262353515625,1.5674911626540124,-7.033095971524715,6.651985945883393
1758301028971597300,1.332597412109375,1.8957725382968782,-6.946189841488003,6.657842270696163
1758301028981571300,1.3425712890625,2.1539007657833396,-6.849469588923454,6.679509328103065
1758301028991545300,1.35254541015625,2.368979540616274,-6.741659202545881,6.716275754964351
1758301029001519400,1.362519287109375,2.5437065774470566,-6.6091393223255865,6.783747116690874
1758301029011492400,1.372492431640625,2.7030142190888524,-6.446946188375353,6.877570478770137
1758301029021466400,1.38246630859375,2.8797181089505552,-6.375012586542963,6.872905409568548
1758301029031440400,1.3924404296875,2.989687134666741,-6.485467349949479,6.720927380162477
1758301029041414100,1.4024140625,3.014123364526033,-6.712823568683862,6.482548247632384
1758301029051388200,1.41238818359375,2.980423047237098,-6.957830010399222,6.23506869380176
1758301029061362200,1.422362060546875,2.89193432418406,-7.164668341761827,6.0394216185390945
1758301029071336200,1.432336181640625,2.731732656311989,-7.320702953082322,5.925818035712838
1758301029081310200,1.442310302734375,2.4998139519676563,-7.400776606750488,5.928727785679698
1758301029091284200,1.4522841796875,2.3316312222138045,-7.363791568702459,6.042222647434473
1758301029101258200,1.46225830078125,2.3118115462392566,-7.201900048047304,6.2416784673303365
1758301029111232300,1.472232177734375,2.4578160541936755,-6.9163862393766635,6.503315725851059
1758301029121206300,1.482206298828125,2.778400299462676,-6.489314673027396,6.807323222589492
1758301029131180300,1.49218017578125,3.1365304315328597,-5.946694819524883,7.139284894180298
1758301029141154300,1.502154296875,3.3568902155086398,-5.374744242119789,7.484236395725607
1758301029151128300,1.51212841796875,3.408358829200268,-4.868010525512695,7.801022710016369
1758301029161102300,1.522102294921875,3.385709190496802,-4.495340703697503,8.031143132767081
1758301029171076400,1.532076416015625,3.390941538192332,-4.270711571839452,8.150639865285157
1758301029181050400,1.54205029296875,3.4698183832913636,-4.16019484911263,8.17456493075192
1758301029191024400,1.5520244140625,3.6124259422838687,-4.115212382569909,8.135465092507005
1758301029200998400,1.561998291015625,3.7588738100916146,-4.0819583477437495,8.085721110650896
1758301029210972400,1.571972412109375,3.839483762593567,-4.008976405902207,8.084359174647927
1758301029220946400,1.581946533203125,3.840084651096165,-3.8584111659035085,8.157008815795182
1758301029230920200,1.591920166015625,3.78532810177505,-3.62363239595294,8.289208378019929
1758301029240894200,1.601894287109375,3.689591891811788,-3.323976372422278,8.456267656701803
1758301029250868200,1.6118681640625,3.560165885953605,-2.9842969660609957,8.63652485513091
1758301029260842200,1.62184228515625,3.408216790381074,-2.630782803353667,8.810983596414328
1758301029270815500,1.6318154296875,3.2475328919500113,-2.290555407720804,8.965337122780085
1758301029280789200,1.641789306640625,3.092745065820217,-1.9691177604928611,9.095487351259589
1758301029290763300,1.65176318359375,2.8983213948726654,-1.6800079731568693,9.216706669786571
1758301029300737300,1.6617373046875,2.6466402976989745,-1.418690301979333,9.335577379360794
1758301029310711300,1.671711181640625,2.3603172184720633,-1.1526988668370992,9.44830944004953
1758301029320685300,1.681685302734375,2.0808628559708593,-0.8922191077884286,9.541716622543335
1758301029330659300,1.691659423828125,1.8371439698480068,-0.685023633551225,9.608644378912448
1758301029340633300,1.70163330078125,1.6303703742846845,-0.5543405403040349,9.654272742143272
1758301029350607400,1.711607421875,1.4562456872612237,-0.49110579323396086,9.68548095035553
1758301029360581400,1.721581298828125,1.3210488429166376,-0.4710191003536805,9.705841601338982
1758301029370555400,1.731555419921875,1.2257317351482808,-0.47128045470360663,9.718326988902687
1758301029380529400,1.741529296875,1.1315055644217877,-0.47777624646369365,9.729429982197285
1758301029390503400,1.75150341796875,1.0023236695177853,-0.48756099676657466,9.743101364675164
1758301029400477400,1.7614775390625,0.84445373252891,-0.5102588219933212,9.75689023605287
1758301029410451500,1.771451416015625,0.6904713044978678,-0.5579498899076134,9.766387547716498
1758301029420425500,1.781425537109375,0.5544583214648068,-0.6346044558472931,9.770375740569829
1758301029430399500,1.7913994140625,0.4453467162955552,-0.7437820389248431,9.768257433241605
1758301029440373500,1.80137353515625,0.3624746640805155,-0.88544895606637,9.759866036993264
1758301029450347500,1.811347412109375,0.2789392525859177,-1.036619906873256,9.747717334038018
1758301029460321500,1.821321533203125,0.17493156469324603,-1.1653221285015345,9.73559376552403
1758301029470295600,1.831295654296875,0.053229563516122284,-1.2539952682107687,9.725998254182935
1758301029480269300,1.841269287109375,-0.08174078316278756,-1.319322749776393,9.717153853470087
1758301029490243000,1.8512431640625,-0.2011477367718704,-1.3997534001886844,9.704152917599677
1758301029500217000,1.861217041015625,-0.2633948062451556,-1.5262345847666263,9.683574824473261
1758301029510191000,1.871191162109375,-0.22010350765977055,-1.7025297476969659,9.655224343779683
1758301029520165000,1.8811650390625,-0.05889050275410991,-1.9045052953287958,9.619760231688618
1758301029530139100,1.89113916015625,0.1685797662474215,-2.105928469774872,9.576379355123638
1758301029540113200,1.901113037109375,0.373461154855974,-2.285981670064479,9.529176874443888
1758301029550087200,1.911087158203125,0.4390426842479035,-2.418483137845248,9.493606963890791
1758301029560061200,1.921061279296875,0.4276822090608999,-2.5132787059575317,9.469471470543741
1758301029570035200,1.93103515625,0.40747645637821406,-2.591618083178997,9.449225385850667
1758301029580009200,1.94100927734375,0.38808227580673993,-2.6595371886730192,9.431152553543448
1758301029589983200,1.950983154296875,0.3439812317410484,-2.7169018746659157,9.416501512378453
1758301029599957200,1.960957275390625,0.2733529403535649,-2.7746973532915113,9.401952178022265
1758301029609931300,1.97093115234375,0.17803044402403756,-2.837361606997251,9.385524774834513
1758301029619905300,1.9809052734375,0.07471857007553334,-2.8987554023757576,9.368138171225786
1758301029629879300,1.99087939453125,-0.008446313335685409,-2.9564287159264087,9.350392086654901
1758301029639853300,2.000853271484375,-0.04682192039694637,-3.0095851365745068,9.333305342775583
1758301029649827300,2.010827392578125,-0.03270070494246902,-3.0560356298431754,9.31825916481316
1758301029659801300,2.02080126953125,0.01760053177048685,-3.0955475560203194,9.305247707548737
1758301029669775400,2.030775390625,0.0768332469748333,-3.13599763983041,9.291392785197496
1758301029679749400,2.040749267578125,0.13434029144733212,-3.1848306443214414,9.27411490266025
1758301029689723100,2.05072314453125,0.19462533099949358,-3.250558377251029,9.250210295459627
1758301029699697200,2.060697265625,0.26032089695883914,-3.3331355381727215,9.219155816504358
1758301029709671200,2.070671142578125,0.3314809388691559,-3.42826326084882,9.181912419781089
1758301029719645200,2.080645263671875,0.40053339577466246,-3.5283310702756046,9.141162476241588
1758301029729619200,2.090619140625,0.45924693909324704,-3.62804290587157,9.099273884060977
1758301029739593200,2.10059326171875,0.49656460662912577,-3.725002520149946,9.058044048050045
1758301029749567200,2.110567138671875,0.4832947176242247,-3.816106394137442,9.020761488360167
1758301029759541200,2.120541259765625,0.4032343252964318,-3.8887922756418583,8.993614538237452
1758301029769515300,2.130515380859375,0.2932164006709121,-3.9362785416990516,8.977200579053163
1758301029779489300,2.1404892578125,0.19506332055795936,-3.9660570093691345,8.966756926450133
1758301029789463300,2.15046337890625,0.13640917927641422,-4.002514808672666,8.951629499945044
1758301029799437300,2.160437255859375,0.15195434713638387,-4.0615848372787235,8.924732140669226
1758301029809411300,2.170411376953125,0.23591265108501538,-4.1411555098608135,8.886255987280606
1758301029819385300,2.18038525390625,0.35399748924486335,-4.23250137591064,8.839174502632021
1758301029829359400,2.190359375,0.47319907474126666,-4.324880092139542,8.788736108770966
1758301029839333400,2.20033349609375,0.5664756165927276,-4.409638688753545,8.740971318033337
1758301029849307400,2.210307373046875,0.6364243647508323,-4.484358121912181,8.698038185235857
1758301029859281400,2.220281494140625,0.6951973101064562,-4.553661082980036,8.657439048343896
1758301029869255400,2.23025537109375,0.7430722101550549,-4.614892965795099,8.620962544339895
1758301029879229200,2.240229248046875,0.7925704005565494,-4.675512561930716,8.583809748509525
1758301029889203200,2.250203125,0.8611672591816634,-4.754522678020596,8.533657770374417
1758301029899177200,2.26017724609375,0.945112931977585,-4.869177231204509,8.459802260568738
1758301029909151200,2.270151123046875,1.0536975175980479,-5.031807003006339,8.351108661615848
1758301029919125200,2.280125244140625,1.1696660029247403,-5.248188823261857,8.201144894641637
1758301029929099300,2.290099365234375,1.2636397332601248,-5.465094375130533,8.044025410693884
1758301029939073300,2.3000732421875,1.2737917094402014,-5.608847012504935,7.942838241848349
1758301029949047300,2.31004736328125,1.192141746366024,-5.661901726344228,7.917831810885668
1758301029959021300,2.320021240234375,1.0459235225956887,-5.648780963486432,7.947812523129582
1758301029968995300,2.329995361328125,0.9105758716035633,-5.606583743748068,7.994214793342351
1758301029978969300,2.33996923828125,0.8798379112515599,-5.577198659309745,8.018175514644383
1758301029988943400,2.349943359375,0.9529160800091921,-5.579852388688922,8.007970931494235
1758301029998917400,2.35991748046875,1.086139797649905,-5.619326320943236,7.963281894940137
1758301030008891400,2.369891357421875,1.2507561401590703,-5.679928381422162,7.895849111658334
1758301030018865400,2.379865478515625,1.4145822821386158,-5.748963923725485,7.817848757132888
1758301030028839400,2.38983935546875,1.5370691363833844,-5.824037577149272,7.738760022848844
1758301030038813400,2.3998134765625,1.5803959446735678,-5.884257944834232,7.684286674383282
1758301030048787500,2.409787353515625,1.5754147952601312,-5.92374298300445,7.65491561847031
1758301030058761500,2.419761474609375,1.5689888538658618,-5.963214577171206,7.6255311185538766
1758301030068736800,2.42973681640625,1.5850765037052332,-6.020676001536846,7.576897143766284
1758301030078710800,2.439710693359375,1.6281873311571775,-6.099142220008373,7.504655498898029
1758301030088684800,2.449684814453125,1.6738564647898078,-6.181576757588982,7.426753928571939
1758301030098658800,2.459658935546875,1.6891063486307858,-6.249647254252434,7.3660846480757
1758301030108632800,2.4696328125,1.652047514694184,-6.288907836017012,7.341032624405622
1758301030118606800,2.47960693359375,1.5855056889027357,-6.303191212913394,7.343457221204042
1758301030128580600,2.48958056640625,1.5264711700014768,-6.309500542190671,7.350542211028933
1758301030138554600,2.4995546875,1.4958116817131637,-6.323479383182526,7.344830263122915
1758301030148528600,2.509528564453125,1.4991658144466578,-6.349518079802394,7.321647540456056
1758301030158502700,2.519502685546875,1.5417814057275652,-6.3802195075362915,7.286020346757769
1758301030168476700,2.5294765625,1.6069762008242308,-6.412666317632794,7.243320438194274
1758301030178450700,2.53945068359375,1.6761261632874607,-6.446951449072361,7.197068390107154
1758301030188424700,2.5494248046875,1.7499996471412478,-6.484801579517126,7.145295532771945
1758301030198398500,2.5593984375,1.8277825595237314,-6.527378738483786,7.086812364143133
1758301030208372500,2.56937255859375,1.9069548804379999,-6.571206189772487,7.025180960616469
1758301030218346500,2.579346435546875,1.9752334668941796,-6.606526509478688,6.97299543082714
1758301030228320500,2.589320556640625,2.0419214231580494,-6.630135348603129,6.931251215553283
1758301030238294500,2.59929443359375,2.136014249828458,-6.655038319191336,6.878829538920521
1758301030248268500,2.6092685546875,2.301997131450474,-6.719112439695,6.7620064095258705
1758301030258242600,2.61924267578125,2.599182380953431,-6.92926208756268,6.434281352591515
1758301030268216600,2.629216552734375,2.824519953341782,-7.219334582450985,6.006137188574671
1758301030278190600,2.639190673828125,2.902840918123722,-7.458387668719888,5.667127936559916
1758301030288164600,2.64916455078125,2.920454023964703,-7.57466660823524,5.50143234744668
1758301030298138600,2.659138671875,2.8655957678347823,-7.570090970882773,5.536466835948825
1758301030308112600,2.669112548828125,2.763585884429514,-7.515942032065987,5.660705794557929
1758301030318086700,2.679086669921875,2.674472015215456,-7.481972542446852,5.7478404726535075
1758301030328060700,2.689060791015625,2.6211408225223423,-7.475854351827502,5.780276761355996
1758301030338034700,2.69903466796875,2.5755633126959205,-7.483897373029589,5.790347488993406
1758301030348008700,2.7090087890625,2.5349659293696285,-7.49663468952775,5.791786581885814
1758301030357982700,2.718982666015625,2.515660048136115,-7.507834128934144,5.785694110229611
1758301030367956700,2.728956787109375,2.504655839040875,-7.514286666074395,5.782089948257804
1758301030377931500,2.738931640625,2.4772359171956775,-7.518373643127084,5.788585740017891
1758301030387905500,2.748905517578125,2.448753480685502,-7.519241073611378,5.799567152759432
1758301030397879600,2.758879638671875,2.4542034166544675,-7.515968335551023,5.801506596389412
1758301030407853600,2.768853515625,2.51570680988729,-7.5045239814728495,5.789968718808889
1758301030417827600,2.77882763671875,2.618145440098643,-7.4841364424824715,5.770909213551879
1758301030427801600,2.788801513671875,2.7172806448504327,-7.450410698491335,5.768722517162561
1758301030437775600,2.798775634765625,2.7810867620676754,-7.3886103681385515,5.817590885227919
1758301030447749600,2.80874951171875,2.8015716239526864,-7.297235568255186,5.922154837030172
1758301030457723600,2.8187236328125,2.822632824420929,-7.187019289779663,6.045649114751815
1758301030467697700,2.82869775390625,2.852475004976988,-7.069339251294732,6.169133455601334
1758301030477671700,2.838671630859375,2.881611667612195,-6.95513010379076,6.284336290317773
1758301030487645700,2.848645751953125,2.9074726695775985,-6.858094793927669,6.378364235058426
1758301030497619700,2.85861962890625,2.9537171188801525,-6.793786864668131,6.425760777005553
1758301030507593700,2.86859375,3.0498806143447754,-6.772663412618637,6.403095940732956
1758301030517567700,2.878567626953125,3.1560180990740654,-6.758963973090053,6.3660284850984805
1758301030527541800,2.888541748046875,3.2317341420546173,-6.713961048281193,6.375657314187288
1758301030537515500,2.898515625,3.2523388309270143,-6.626772594171762,6.455892880418896
1758301030547489500,2.908489501953125,3.2384058749035,-6.497786733296513,6.592562281534075
1758301030557463600,2.918463623046875,3.202549548624456,-6.338610901340842,6.762843444871902
1758301030567437600,2.9284375,3.176839937828481,-6.154546711844206,6.942594447344542
1758301030577411600,2.93841162109375,3.1898923116251825,-5.961831598380208,7.102923540988564
1758301030587385600,2.948385498046875,3.2788080279186365,-5.786432361376285,7.206734044075012
1758301030597360600,2.958360595703125,3.4975057239010927,-5.663734202468395,7.201385668784379
1758301030607334700,2.968334716796875,3.892496683117747,-5.611085146820545,7.038079020634293
1758301030617308700,2.97830859375,4.432417799055576,-5.622188140115141,6.701870212993025
1758301030627282700,2.98828271484375,5.025788181108236,-5.6837476474493736,6.213441968405246
1758301030637256700,2.998256591796875,5.580690008556842,-5.774746015235781,5.628372966229915
1758301030647230700,3.008230712890625,6.000950725847482,-5.874051023596524,5.065028304606676
1758301030657204700,3.018204833984375,6.205832662445307,-5.9737803948491806,4.687425702564418
1758301030667178800,3.0281787109375,6.161210261386633,-6.0908005081206555,4.594782490180433
1758301030677152500,3.038152587890625,5.906552194228768,-6.252472833067178,4.71058562887758
1758301030687126500,3.04812646484375,5.52744766319096,-6.487493887341022,4.850785834467411
1758301030697100500,3.0581005859375,5.108053791862726,-6.815152308779955,4.861262220296263
1758301030707074600,3.068074462890625,4.711774254140257,-7.223443186813593,4.668130342724919
1758301030717048600,3.078048583984375,4.362654819260538,-7.65838592492938,4.299620855459571
1758301030727022600,3.088022705078125,4.040737279561162,-8.06025699904859,3.8568218508854506
1758301030736996600,3.09799658203125,3.7367844356194135,-8.38728355232477,3.443879639914632
1758301030746970600,3.107970703125,3.4651617896571754,-8.629463830703497,3.113742845663428
1758301030756944600,3.117944580078125,3.2317990239843724,-8.80338773445785,2.868140483881533
1758301030766918700,3.127918701171875,3.009017565819621,-8.938836069345474,2.685782221519947
1758301030776892700,3.137892578125,2.7615365506842733,-9.061015757337213,2.538168817064166
1758301030786867700,3.14786767578125,2.4655098235666753,-9.181680364590882,2.4059100719980893
1758301030796841700,3.157841796875,2.1198567496232688,-9.299775998139381,2.278322825874388
1758301030806815700,3.167815673828125,1.74304398278445,-9.406012851589917,2.1584911623135206
1758301030816789500,3.17778955078125,1.3530251128919422,-9.49133083565235,2.062600492440909
1758301030826763500,3.187763427734375,0.9719130414240061,-9.548668925899266,2.0121300960063935
1758301030836737500,3.197737548828125,0.6044745078584179,-9.57824164186418,2.015507025093585
1758301030846711600,3.207711669921875,0.25197164108548314,-9.583080898588895,2.0667524975538254
1758301030856685600,3.217685546875,-0.07920955678527243,-9.565765606650709,2.1587588733389973
1758301030866659600,3.22765966796875,-0.38008557796441017,-9.527721999460459,2.290947329647839
1758301030876633600,3.237633544921875,-0.6457363829754292,-9.468838433337211,2.4687056969985366
1758301030886607600,3.247607666015625,-0.881005932117626,-9.38827261223793,2.693429229141772
1758301030896581600,3.25758154296875,-1.0941500856261699,-9.28599414102435,2.9569509862348435
1758301030906555600,3.2675556640625,-1.2887692060805855,-9.162163763216137,3.2502664085671302
1758301030916529700,3.27752978515625,-1.4702908714875578,-9.01650090830624,3.5652974036231635
1758301030926503700,3.287503662109375,-1.6473521964848041,-8.85021845921576,3.889762874239683
1758301030936477700,3.297477783203125,-1.8200103180870413,-8.664473184764384,4.217210575537384
1758301030946452700,3.30745263671875,-1.972976774008572,-8.460702424278855,4.549093336673081
1758301030956426500,3.317426513671875,-2.0892693036578596,-8.2396526122123,4.890137601646781
1758301030966400500,3.327400390625,-2.155629927663505,-8.00292767663002,5.241829225102067
1758301030976374500,3.33737451171875,-2.169690309458971,-7.753008328431844,5.5994367946028705
1758301030986348500,3.3473486328125,-2.1347160267114638,-7.492905439871549,5.955648525831103
1758301030996322600,3.357322509765625,-2.0649507088288663,-7.225068157666922,6.301170520740747
1758301031006296600,3.367296630859375,-1.985748285037279,-6.949017758390307,6.628599225077033
1758301031016270600,3.3772705078125,-1.9163100071519612,-6.664111852484941,6.934535644051432
1758301031026244600,3.38724462890625,-1.8576412528231738,-6.3715136385113,7.219650808793306
1758301031036218600,3.397218505859375,-1.8033479370996355,-6.0743988238960505,7.4846496527016155
1758301031046192600,3.407192626953125,-1.7443999274380504,-5.778899627783894,7.728631427544355
1758301031056167200,3.417167236328125,-1.6735915302433073,-5.491183925154805,7.95087424878776
1758301031066141200,3.42714111328125,-1.589685458805412,-5.215535676938295,8.151165934985876
1758301031076115200,3.437115234375,-1.4909467060253023,-4.955913849893212,8.329850185009837
1758301031086089200,3.447089111328125,-1.3714501196376978,-4.714715860550105,8.4888734567523
1758301031096063200,3.457063232421875,-1.2335147902399302,-4.488757818175852,8.631331962662935
1758301031106038000,3.4670380859375,-1.091716136477515,-4.2735497178748245,8.758727923998237
1758301031116012000,3.477011962890625,-0.9567785275910049,-4.071226818110048,8.870179297226667
1758301031125986000,3.486986083984375,-0.8397649171255528,-3.8878891893222924,8.963787555250525
1758301031135960000,3.4969599609375,-0.7467347512505949,-3.7273572665825485,9.0398876291126
1758301031145934000,3.50693408203125,-0.6731476100575179,-3.5938019058346744,9.09955094743669
1758301031155908000,3.516908203125,-0.6147242818571627,-3.4901866330593823,9.143910313645005
1758301031165882000,3.526882080078125,-0.5687807151973248,-3.414458899641037,9.17542013515234
1758301031175856000,3.536856201171875,-0.5407025486391037,-3.3563211834490296,9.198538560411334
1758301031185830100,3.546830078125,-0.5352982784427702,-3.309232976798713,9.215899445056914
1758301031195804200,3.55680419921875,-0.5371226443257182,-3.27855902159363,9.226751678460836
1758301031205778200,3.566778076171875,-0.5220111460421234,-3.270666514778137,9.23041838427484
1758301031215752200,3.576752197265625,-0.47849115326739844,-3.2864597117155787,9.227166689002514
1758301031225726200,3.586726318359375,-0.4118088595593348,-3.317987653401494,9.21909619527161
1758301031235701000,3.596700927734375,-0.3382436379371211,-3.3581916534960268,9.207526168987155
1758301031245675000,3.606675048828125,-0.2718811873005703,-3.4059888851985334,9.192154996854066
1758301031255649000,3.61664892578125,-0.21556211963677777,-3.466163952437043,9.17113032900393
1758301031265623000,3.626623046875,0.08271959246653132,-3.5830469953253865,9.12827026144266
1758301031275597000,3.63659716796875,0.24299753131205215,-3.86372388535887,9.010160014846921
1758301031285571000,3.646571044921875,0.35753395627532153,-4.1371944972753525,8.884041233840584
1758301031295545000,3.656545166015625,0.24312426296425982,-4.31885045658648,8.801068936121464
1758301031305519000,3.66651904296875,-0.11307185056973248,-4.416859287656844,8.754940222153067
1758301031315493000,3.6764931640625,-0.5675960354574024,-4.497563932704925,8.69598359079361
1758301031325467100,3.686467041015625,-0.9385282198250293,-4.635721526551246,8.590672035494446
1758301031335441200,3.696441162109375,-1.1501215636949986,-4.835479836525023,8.453741937616467
1758301031345415200,3.706415283203125,-1.242978199633956,-5.060193724057078,8.30781780142188
1758301031355389200,3.71638916015625,-1.2659411420702933,-5.272107458987832,8.171453520733117
1758301031365363200,3.72636328125,-1.2522235823631287,-5.456314271825551,8.051768572166562
1758301031375338000,3.736337890625,-1.2401621192999184,-5.609758282130956,7.947515001487732
1758301031385312000,3.74631201171875,-1.209735416854173,-5.713289383754134,7.878148619794845
1758301031395286000,3.7562861328125,-1.161514187585935,-5.783593338558077,7.8339844838976855
1758301031405260000,3.766260009765625,-1.0817568333253265,-5.806665586587786,7.828336833399534
1758301031415234000,3.776234130859375,-0.9932394686996936,-5.7813926136434075,7.858712097918986
1758301031425208000,3.7862080078125,-0.8666635915756226,-5.738059083351493,7.90531252105236
1758301031435182000,3.79618212890625,-0.6844456144675612,-5.703238529860973,7.948269619247317
1758301031445156000,3.806156005859375,-0.471305881405808,-5.6844888212054965,7.9771455851197235
1758301031455130000,3.816130126953125,-0.3109587041158229,-5.669373669660091,7.995742733561992
1758301031465104100,3.826104248046875,-0.2301709108289331,-5.6586102835834025,8.006092278140782
1758301031475078100,3.836078125,-0.22886198365483432,-5.663056157076358,8.00298437525332
1758301031485052200,3.84605224609375,-0.35254520807731893,-5.695887582576274,7.975145935735106
1758301031495026200,3.856026123046875,-0.5159964523298666,-5.764383026653528,7.916819418972731
1758301031505001200,3.866001220703125,-0.6728334295418114,-5.857873795777559,7.836007514157891
1758301031514975000,3.87597509765625,-0.8349965336799621,-5.938900804647803,7.759034164592623
1758301031524949000,3.885948974609375,-0.9872762494463473,-5.98223199685216,7.70769560702145
1758301031534923000,3.895923095703125,-1.0888105512291193,-5.990563771867752,7.687524341130256
1758301031544897000,3.90589697265625,-1.120282598009333,-5.970580137503147,7.698541409707069
1758301031554871000,3.91587109375,-1.0891191057216376,-5.927337792626023,7.736333672484755
1758301031564845000,3.925844970703125,-1.0293743927244097,-5.865898696801066,7.7911477972120045
1758301031574819000,3.935819091796875,-0.9827513924330472,-5.7939639259248965,7.850769029960036
1758301031584793000,3.94579296875,-0.9863616918846965,-5.722432475152611,7.90260910731256
1758301031594767000,3.95576708984375,-1.061494089758396,-5.657989521336555,7.939191409778594
1758301031604741000,3.9657412109375,-1.2089746616147459,-5.605300718200207,7.9554615765780206
1758301031614715100,3.975715087890625,-1.3947060536712408,-5.5737160778909915,7.9472543047249316
1758301031625937200,3.986937255859375,-1.5510945929959417,-5.562303287994861,7.926240742790698
1758301031636534300,3.9975341796875,-1.5865984525755046,-5.574783414861559,7.910428841152787
1758301031646508300,4.00750830078125,-1.5644403967812657,-5.599596369078755,7.897305155685544
1758301031656482300,4.017482421875,-1.4735754461161792,-5.62552809819281,7.8963529695272445
1758301031666456300,4.027456298828125,-1.3682638908170164,-5.665525177538394,7.886701344084739
1758301031676430300,4.037430419921875,-1.2899474560797213,-5.721747415497899,7.859263886582851
1758301031686404400,4.047404296875,-1.2393506567865609,-5.786022611531615,7.82025055757761
1758301031696378000,4.057378173828125,-1.1996099633548407,-5.849921375468373,7.778801525858044
1758301031706352000,4.06735205078125,-1.1406114656150341,-5.934087266886234,7.723729042455553
1758301031716326100,4.077326171875,-1.0584702849578111,-6.051975979685783,7.643533808234333
1758301031726300200,4.087300048828125,-0.9792840816486627,-6.195332895740866,7.538514513880014
1758301031736274200,4.097274169921875,-0.9301905265253037,-6.325007323402166,7.4363570386976
1758301031746249200,4.107249267578125,-0.9072486268769949,-6.395079223015904,7.379039991238713
1758301031756223200,4.11722314453125,-0.8510769500609486,-6.4521361582338805,7.335936762571334
1758301031766197200,4.127197265625,-0.7542587170146405,-6.534395923769473,7.273456048738956
1758301031776171300,4.137171142578125,-0.6626897097334266,-6.6483923053056,7.178448445311188
1758301031786145300,4.147145263671875,-0.611897095607221,-6.7762178902298205,7.062495669010281
1758301031796119300,4.157119384765625,-0.5878176798289642,-6.903923063644767,6.939792249405384
1758301031806093300,4.16709326171875,-0.5652973665935919,-7.019436864006519,6.824833160316944
1758301031816067300,4.1770673828125,-0.5335461010131984,-7.119333993041515,6.723152654996514
1758301031826041300,4.187041259765625,-0.5012774970278143,-7.204655484235286,6.634157443726062
1758301031836015000,4.19701513671875,-0.46530474129486826,-7.275671971222758,6.558848227980732
1758301031845989000,4.206989013671875,-0.408037195533514,-7.3322525211006395,6.499381893533468
1758301031855964200,4.216964111328125,-0.32440548405759034,-7.377262460172176,6.452993651846051
1758301031865938200,4.226938232421875,-0.23321027852483092,-7.416794844615459,6.411486752459407
1758301031875912200,4.236912109375,-0.15981456825062632,-7.458360780712962,6.365352777794003
1758301031885886200,4.24688623046875,-0.11547593430308624,-7.504287834629416,6.312107509818673
1758301031895860200,4.256860107421875,-0.09586371793360449,-7.5600594062119715,6.245534558236598
1758301031905834200,4.266834228515625,-0.07911178636606782,-7.629502360272407,6.16074965813756
1758301031915808300,4.276808349609375,-0.06678580431488808,-7.708063271290063,6.0623190945237875
1758301031925782300,4.2867822265625,-0.06359036014128942,-7.786353548672795,5.961463349589705
1758301031935756300,4.29675634765625,-0.06853415495271328,-7.8547502085506915,5.870994558635354
1758301031945730300,4.306730224609375,-0.0732490546453977,-7.918291245090961,5.784954105517268
1758301031955705000,4.316705078125,-0.07920407689255662,-7.979173876076937,5.700604089704155
1758301031965679000,4.32667919921875,-0.08898852580133824,-8.036281664699315,5.619664759117365
1758301031976277000,4.337277099609375,-0.09516404523164965,-8.093117650642991,5.537397394797206
1758301031986251000,4.3472509765625,-0.0933036673204042,-8.144081529682873,5.462199238210916
1758301031996225000,4.35722509765625,-0.08171170319877565,-8.19088244382441,5.391951982030272
1758301032006199000,4.367198974609375,-0.05950473022889346,-8.233660678321122,5.3266971273094414
1758301032016173000,4.377173095703125,-0.036302939818671436,-8.272228017124533,5.26681461327672
1758301032026147000,4.38714697265625,-0.02390501134271035,-8.306172956824302,5.213184729897976
1758301032036121000,4.39712109375,-0.025901267760421613,-8.33793762987554,5.1622202663362025
1758301032046095000,4.40709521484375,-0.045909463460836554,-8.366959726220369,5.114907895541191
1758301032056068600,4.417068603515625,-0.0789276437045075,-8.396099895986914,5.066526434209942
1758301032066042600,4.427042724609375,-0.10467874642149545,-8.426559331658481,5.015231131258607
1758301032076017700,4.437017578125,-0.10708318634787574,-8.45863964653015,4.960880532389879
1758301032085991700,4.44699169921875,-0.06836842929725535,-8.493073831051587,4.902387719149887
1758301032095965700,4.456965576171875,0.01017113411333994,-8.52445739583075,4.848084466554225
1758301032105939700,4.466939697265625,0.11407097200914286,-8.548062727823853,4.804997604499757
1758301032115913700,4.476913818359375,0.22791911331415174,-8.562174839806556,4.775731470265984
1758301032125887700,4.4868876953125,0.3376003350649029,-8.567318047913908,4.759987665428221
1758301032135861800,4.49686181640625,0.425707840248011,-8.565221952417492,4.756693007797002
1758301032145835500,4.50683544921875,0.49444352282192555,-8.557146197989583,4.764571193826198
1758301032155809500,4.5168095703125,0.5647508386267349,-8.542897307884692,4.78229360526055
1758301032165784600,4.52678466796875,0.6434202880527824,-8.519990479549765,4.8131221665054555
1758301032175758600,4.536758544921875,0.7382908210974186,-8.486265904602408,4.858868018636107
1758301032185732600,4.546732666015625,0.8578627377435565,-8.43904121209085,4.92107985239923
1758301032195706600,4.55670654296875,0.9878872940167784,-8.37906049838066,4.998583947840332
1758301032205680600,4.5666806640625,1.1345300998747347,-8.309162786290049,5.08340976447165
1758301032215654700,4.576654541015625,1.262785454518348,-8.237109357470274,5.1697003929585215
1758301032225628700,4.586628662109375,1.3404991010569036,-8.174167455866932,5.249424502536654
1758301032235602700,4.596602783203125,1.350105133792013,-8.129981108137965,5.315168602079153
1758301032245577500,4.606577392578125,1.2872719532601535,-8.11301711385548,5.356515926989912
1758301032255551500,4.616551513671875,1.15223548710905,-8.129408276686071,5.3624102457255125
1758301032265525500,4.626525390625,0.954648895151168,-8.178557799780368,5.3263709640949966
1758301032275499500,4.63649951171875,0.7091386686321347,-8.2530054302603,5.249325718337297
1758301032285473500,4.6464736328125,0.4545805912500247,-8.33696790806055,5.143806073245406
1758301032295447600,4.656447509765625,0.2486532737851143,-8.409191432750225,5.039254980924725
1758301032305421600,4.666421630859375,0.1129994246543385,-8.462004739049076,4.955007840964198
1758301032315395600,4.6763955078125,0.052150915133673696,-8.505876029479504,4.880344521906972
1758301032325370600,4.68637060546875,0.04798684969020541,-8.539715170717239,4.820928748603165
1758301032335344600,4.6963447265625,0.0822166387799196,-8.570891230225563,4.764814647193253
1758301032345318700,4.706318603515625,0.13371501742214895,-8.605486742788553,4.700863276286423
1758301032355292700,4.716292724609375,0.18440713944910092,-8.648940684589743,4.618682713466883
1758301032365266700,4.7262666015625,0.24052772539872674,-8.685783683818578,4.546393722325563
1758301032375240400,4.736240478515625,0.24565906040519475,-8.749403046292066,4.4224405949205154
1758301032385214500,4.74621435546875,0.22532498690141364,-8.82488937216997,4.270941873463988
1758301032395188500,4.7561884765625,0.1704524282515049,-8.89734495204985,4.1205075663685795
1758301032405163500,4.76616357421875,0.08082754077538848,-8.966349514693022,3.970948288542032
1758301032415137500,4.776137451171875,-0.037670558927045204,-9.02976312546134,3.825224643355608
1758301032425111600,4.786111572265625,-0.18291806993512436,-9.087294107931852,3.6821243324100967
1758301032435085600,4.79608544921875,-0.3459551986951381,-9.129939655959605,3.5629920492902394
1758301032445059600,4.8060595703125,-0.5124980157548561,-9.1624776514709,3.4578500053390857
1758301032455033600,4.81603369140625,-0.6832376999825239,-9.186847538095712,3.362352280306816
1758301032465007600,4.826007568359375,-0.8539796857651323,-9.203446790719031,3.2768393581941724
1758301032474981600,4.835981689453125,-1.01591570314914,-9.214884715056419,3.1975258752435445
1758301032484956400,4.845956298828125,-1.1374135463565587,-9.230440011584758,3.110572691194713
1758301032494930400,4.855930419921875,-1.2031968088656664,-9.256031548959017,3.00808642244935
1758301032504904400,4.865904541015625,-1.2230610546343028,-9.289050605985521,2.8962156547650695
1758301032514878500,4.87587841796875,-1.230231384655088,-9.324864846688508,2.7755729670822618
1758301032524852500,4.8858525390625,-1.22784975021556,-9.364186803251505,2.6409821258068082
1758301032534826500,4.895826416015625,-1.216758374293521,-9.401042077440023,2.512028413635492
1758301032544800500,4.905800537109375,-1.1986939444884657,-9.434739764380454,2.391486702109128
1758301032554775600,4.915775634765625,-1.177877585626766,-9.465458143249153,2.277740934333205
1758301032564749600,4.92574951171875,-1.1542770028740168,-9.492594571977854,2.1745545544944704
1758301032574723600,4.9357236328125,-1.1236648608587683,-9.513458496308326,2.0980643122710285
1758301032584697600,4.945697509765625,-1.0851372695438564,-9.525351178675889,2.064109874090552
1758301032594671400,4.95567138671875,-1.0436636148396878,-9.534680148035287,2.0423126144327224
1758301032604645400,4.965645263671875,-1.0048433241885155,-9.541237314593792,2.0311226735070345
1758301032614619400,4.975619384765625,-0.9661661683350801,-9.54756242596209,2.020131616154313
1758301032624594400,4.985594482421875,-0.922977453341335,-9.552266073608397,2.0180897350631652
1758301032634568400,4.995568359375,-0.8808557099919766,-9.552986204576492,2.033454623585939
1758301032644542500,5.00554248046875,-0.8446985741354525,-9.549087443572283,2.0668295083127917
1758301032654516500,5.0155166015625,-0.8101528189983218,-9.541254265728591,2.116250541824847
1758301032664490500,5.025490478515625,-0.7729924243833869,-9.528664833268524,2.1857326588518915
1758301032674464500,5.035464599609375,-0.7495381912987679,-9.51132732949853,2.2678676289640367
1758301032684438500,5.0454384765625,-0.7140286326307803,-9.490989474868774,2.362555498918146
1758301032694413600,5.05541357421875,-0.6586385346464813,-9.461039742285013,2.4950603276997803
1758301032704387600,5.0653876953125,-0.5931749690784142,-9.409904598331451,2.696706643377244
1758301032714361600,5.075361572265625,-0.5966125057790428,-9.348666578036546,2.9011870134368536
1758301032724335600,5.085335693359375,-0.7187545651741325,-9.331172422400117,2.929675149035454
1758301032734309600,5.0953095703125,-0.8442948887053877,-9.369278573432565,2.7702307292714714
1758301032744283600,5.10528369140625,-0.9386104912810027,-9.428278459411858,2.5292291392832995
1758301032754257700,5.115257568359375,-0.9787827810630202,-9.482502801552414,2.3009786020576954
1758301032764232700,5.125232666015625,-1.0204879064355046,-9.544957796421647,2.0056782895185052
1758301032774206700,5.135206787109375,-1.083581053077802,-9.608460839039086,1.6351536630384622
1758301032784180700,5.1451806640625,-1.1228943148776889,-9.658072718948125,1.2771474496088921
1758301032794154800,5.15515478515625,-1.1282667286310344,-9.691385205963254,0.9871335530400276
1758301032804128800,5.165128662109375,-1.1128591700103134,-9.712580554205179,0.7731135665450245
1758301032814102500,5.1751025390625,-1.09057624572739,-9.724921564862132,0.6379070775892585
1758301032824076500,5.18507666015625,-1.0718511600565164,-9.72994260789454,0.5913782218547537
1758301032834051600,5.195051513671875,-1.0589604065623133,-9.730050744444132,0.6124590403389185
1758301032844025600,5.205025634765625,-1.0596486810874193,-9.72749755282998,0.6506393525861204
1758301032853999600,5.21499951171875,-1.0769967793166637,-9.724099142563343,0.672603200982511
1758301032863973600,5.2249736328125,-1.1005340145096183,-9.721252520960569,0.6756417649608105
1758301032873947600,5.23494775390625,-1.120957720791921,-9.718979315331577,0.6747697313666343
1758301032883921700,5.244921630859375,-1.1339581452056764,-9.717043378832935,0.6808993201628327
1758301032893895700,5.254895751953125,-1.1485630822066217,-9.714643331953882,0.6905913506809621
1758301032903870500,5.264870361328125,-1.2341298533983527,-9.706775667318702,0.6525271390940993
1758301032913844500,5.274844482421875,-1.3593714131787418,-9.69754489763677,0.5292348502179608
1758301032923818500,5.284818603515625,-1.4247994325093924,-9.693992173591255,0.408521362321265
1758301032933792500,5.29479248046875,-1.466097073059529,-9.690913496798276,0.3273531183494255
1758301032943766500,5.3047666015625,-1.5168638220921158,-9.68376420956552,0.30692740277312697
1758301032953740500,5.314740478515625,-1.5652482060328126,-9.675602530419827,0.32105427393354474
1758301032963714600,5.324714599609375,-1.5750065067201853,-9.673779406645894,0.3282728635428473
1758301032973689600,5.334689697265625,-1.5153561940081417,-9.683114805746078,0.3337032910937443
1758301032983663600,5.34466357421875,-1.3870261666931212,-9.701430214637517,0.35888321545980867
1758301032993637600,5.3546376953125,-1.199795110663399,-9.72326561434865,0.43472007180843497
1758301033003611600,5.364611572265625,-0.9871577376332134,-9.740015089097618,0.5727080812415107
1758301033013585700,5.374585693359375,-0.8326486553795636,-9.73975030068159,0.7837969461880624
1758301033023559700,5.3845595703125,-0.7887414168529212,-9.71918097538352,1.0420105869356542
1758301033033533700,5.39453369140625,-0.8213713284313678,-9.69612918561995,1.2168767399761824
1758301033043508500,5.404508544921875,-0.8664154620334505,-9.68633785944581,1.2627560822933912
1758301033053482500,5.414482421875,-0.9190233819533139,-9.678592944407463,1.2847604088306426
1758301033063456000,5.4244560546875,-0.9785318750418722,-9.668454996752738,1.3167492460265755
1758301033073430000,5.434429931640625,-1.007836879981309,-9.662586396980284,1.3375567639946937
1758301033083404000,5.444404052734375,-0.9804037333283573,-9.662853523483871,1.3558892701514065
1758301033093378000,5.4543779296875,-0.915436755638197,-9.667512162944673,1.3680536090672015
1758301033103352000,5.46435205078125,-0.8491000239647924,-9.67581997256279,1.3520039531506598
1758301033113327000,5.4743271484375,-0.7957992264099418,-9.68766355509162,1.2985520566873252
1758301033123301000,5.484301025390625,-0.7512776553772389,-9.699464467522501,1.2354546722613273
1758301033133275100,5.494275146484375,-0.7233795215610415,-9.706773329231142,1.194013239326328
1758301033143249200,5.504249267578125,-0.7025050758365541,-9.711095284083486,1.1711150326892732
1758301033153223000,5.514222900390625,-0.6718778823826461,-9.714373282840848,1.1618539409343152
1758301033163197000,5.524197021484375,-0.6214959679491817,-9.717525024870037,1.1635463510006665
1758301033173171000,5.5341708984375,-0.5562730062039569,-9.72083926398456,1.1688571707598865
1758301033183146000,5.54414599609375,-0.4846409446014091,-9.724189158934355,1.1728805079918354
1758301033193120000,5.5541201171875,-0.4092368536468595,-9.727242116764188,1.1762922891966998
1758301033203094000,5.564093994140625,-0.33194044613968576,-9.72966028382182,1.180643908534944
1758301033213068000,5.574068115234375,-0.26009857771135864,-9.731253690493107,1.1855092495489865
1758301033223042000,5.5840419921875,-0.21221883709086103,-9.730960260504483,1.197403393221274
1758301033233016000,5.59401611328125,-0.1708460672115907,-9.729375621661543,1.216739742658287
1758301033242990800,5.603990966796875,-0.11997966632996684,-9.727287124949694,1.239299364990741
1758301033252964900,5.61396484375,-0.06675590693354606,-9.724554485115409,1.2644991265684364
1758301033262939000,5.62393896484375,-0.015034701012115691,-9.72083984850645,1.2943812007434665
1758301033272913000,5.633912841796875,0.034097646043449635,-9.715904730191827,1.330568658673018
1758301033282887000,5.643886962890625,0.07973414691495709,-9.71021090246439,1.3696060992062091
1758301033292861000,5.65386083984375,0.1274586239085067,-9.704123691505194,1.4085983854234219
1758301033302835000,5.6638349609375,0.17612300296751782,-9.6980475864619,1.4447259298592805
1758301033312810200,5.673810302734375,0.22009883148465303,-9.692245622184872,1.4772668479800224
1758301033322784000,5.683783935546875,0.2575788134427741,-9.687027595275639,1.5051652009919285
1758301033332758000,5.693758056640625,0.2890057059070095,-9.682228086039423,1.5301340764231979
1758301033342732000,5.70373193359375,0.3148431443337351,-9.677619130939245,1.5540119417473672
1758301033352706000,5.7137060546875,0.3348054436493665,-9.67309610055685,1.5778106043554843
1758301033362680000,5.72368017578125,0.3472907216152176,-9.668709263774753,1.6018214484095572
1758301033372655000,5.733655029296875,0.35363800828270614,-9.664491353818773,1.6257124654762445
1758301033382629000,5.743629150390625,0.36036066760122776,-9.660466336086392,1.6480070071317254
1758301033392603100,5.75360302734375,0.37757757719885554,-9.656512045502662,1.667210743165016
1758301033402577200,5.7635771484375,0.40847927674520756,-9.652408701837063,1.683611550606787
1758301033412551200,5.77355126953125,0.4525679727859795,-9.647732526719569,1.6990666016310452
1758301033422525200,5.783525146484375,0.5077378521483391,-9.642184829464554,1.7148909243591128
1758301033432499200,5.793499267578125,0.5569628881642594,-9.637758829715848,1.724459109301865
1758301033442474200,5.80347412109375,0.5549089878417551,-9.643511694154142,1.6926693018093704
1758301033452448300,5.8134482421875,0.5031608265563845,-9.656583357173204,1.633288307558
1758301033462422000,5.823422119140625,0.4396991023300215,-9.666304540720581,1.5936132997736334
1758301033472396000,5.83339599609375,0.39658389096390456,-9.668630353319644,1.5908097866602242
1758301033482370000,5.8433701171875,0.3815718344667926,-9.668740827956794,1.593811744955182
1758301033492344000,5.853343994140625,0.38476975372526795,-9.670150110232829,1.5844630479820072
1758301033502319000,5.863319091796875,0.3930697453631088,-9.671606738781929,1.5734937640696762
1758301033512293000,5.873293212890625,0.4010171972362324,-9.672671737664938,1.5649308106467126
1758301033522267100,5.88326708984375,0.4097145541612059,-9.673628015476465,1.5567454583644866
1758301033532241200,5.8932412109375,0.42110527835600076,-9.674612934860587,1.5475561897367238
1758301033542215200,5.903215087890625,0.4349597623158246,-9.675646369561552,1.5372307566858827
1758301033552189200,5.913189208984375,0.4505510434729978,-9.676589787891507,1.526771321991831
1758301033562164000,5.9231640625,0.467096410484612,-9.677605102413892,1.5153100167788565
1758301033572138000,5.933137939453125,0.48466275457441804,-9.679006785905361,1.5007812868192791
1758301033582112000,5.943112060546875,0.504455104150623,-9.68023837352693,1.4862299066364764
1758301033592086000,5.9530859375,0.5227414696106687,-9.681011695986985,1.4748365520931779
1758301033602060000,5.96306005859375,0.5361524841193109,-9.681667529547214,1.4656841083444654
1758301033612034000,5.973033935546875,0.5452402286013588,-9.682636666840315,1.4559038880862294
1758301033622008000,5.983008056640625,0.5477194781964645,-9.684185065326094,1.444626999529451
1758301033631983000,5.992983154296875,0.5389210720498114,-9.686294020304084,1.4337525542937217
1758301033641957000,6.00295703125,0.522564469075948,-9.688807464429736,1.422788092686981
1758301033651931100,6.01293115234375,0.5060437981141731,-9.691024555957316,1.4136271733708679
1758301033661905200,6.0229052734375,0.4894312841504812,-9.692577046096325,1.4088267873518168
1758301033671879200,6.032879150390625,0.46948052914217114,-9.693496499028802,1.4092914822541176
1758301033681854000,6.04285400390625,0.44498128051664676,-9.693788759973645,1.4152153193451464
1758301033691828000,6.052827880859375,0.41918168988227844,-9.693249246269463,1.4267396067917346
1758301033701802000,6.062802001953125,0.39701490279231216,-9.69161667663157,1.4440605978183447
1758301033711776000,6.07277587890625,0.3783995611062273,-9.689094464677572,1.4658213248580694
1758301033721750000,6.08275,0.3594796469829976,-9.686296358391642,1.4889013178028165
1758301033731724000,6.09272412109375,0.33795229030773044,-9.683768885740637,1.510230229296535
1758301033741699000,6.102698974609375,0.3147872494280338,-9.681774497053027,1.5279161081127821
1758301033751673000,6.112673095703125,0.29189729916267093,-9.680304424500465,1.541713455057889
1758301033761647000,6.122647216796875,0.27108004525182766,-9.679049456003307,1.5533476326197384
1758301033771620900,6.132620849609375,0.250972766241245,-9.677883919355272,1.5639512980900705
1758301033781595000,6.142594970703125,0.22786455184901133,-9.67665759243071,1.5750427470773458
1758301033791569000,6.15256884765625,0.2011104187024757,-9.675337157481907,1.5867574425294995
1758301033801544000,6.1625439453125,0.17359231544611975,-9.673760117423534,1.5995742540046571
1758301033811518000,6.17251806640625,0.14797851144112645,-9.67160323165059,1.6151109919629991
1758301033821492000,6.182491943359375,0.12314487976208328,-9.668696988815068,1.6344801476910709
1758301033831466000,6.192466064453125,0.09585678586931899,-9.66483388364613,1.6589751220002769
1758301033841440000,6.20243994140625,0.06426340513122268,-9.659771924081443,1.6896916011728345
1758301033851414000,6.2124140625,0.030719680343219077,-9.65334393686056,1.7269614475116133
1758301033861389000,6.22238916015625,-0.002801169888451113,-9.6454353556931,1.7708664940811694
1758301033871363000,6.232363037109375,-0.03491867325288476,-9.635872577577828,1.8218555075623093
1758301033881337000,6.242337158203125,-0.06306270583826117,-9.624804071074724,1.8787138514682649
1758301033891311000,6.25231103515625,-0.08453667009216732,-9.612589317145943,1.9394260943233965
1758301033901285000,6.26228515625,-0.09808400606526993,-9.599705870175361,2.0016040258169174
1758301033911260200,6.27226025390625,-0.10399312051120213,-9.586733575877547,2.0625497851669787
1758301033921234200,6.282234130859375,-0.10246237641312181,-9.574348141556978,2.1193724732376635
1758301033931208200,6.292208251953125,-0.09520159162990749,-9.563030628728866,2.1702058577656747
1758301033941182200,6.30218212890625,-0.08393723376113921,-9.553144610008596,2.213770420334488
1758301033951156200,6.31215625,-0.06934378626858816,-9.544844399175048,2.249776530347764
1758301033961130200,6.322130126953125,-0.051067741273157295,-9.538009000197052,2.279073059719801
1758301033971105000,6.33210498046875,-0.030171850901842115,-9.532105329111218,2.3040056947939096
1758301033981079000,6.3420791015625,-0.007951058898339396,-9.526602640041709,2.32683244362995
1758301033991053000,6.352052978515625,0.015525183376221684,-9.521110472366214,2.3491662943825125
1758301034001027000,6.362027099609375,0.0414903638103744,-9.515383911412954,2.371949350207299
1758301034011001000,6.3720009765625,0.07134544038062449,-9.509493099808692,2.3947515491239724
1758301034020976000,6.38197607421875,0.10342349479654803,-9.503553188365697,2.4170571966953576
1758301034030950100,6.3919501953125,0.13403355445256457,-9.497993216150999,2.437325931611657
1758301034040924200,6.401924072265625,0.16069820095105095,-9.49338367652893,2.453616264416277
1758301034050898200,6.411898193359375,0.18227252030689267,-9.490081127852202,2.4648636346176267
1758301034060872400,6.42187255859375,0.19557287751529365,-9.488232285115123,2.4709441235750913
1758301034070846500,6.431846435546875,0.19654431636333464,-9.48793827060461,2.4720047385439274
1758301034080821500,6.441821533203125,0.18325775021826848,-9.489007945662737,2.468917001661658
1758301034090795500,6.45179541015625,0.15509303788775577,-9.490987136781214,2.463226973326504
1758301034100769500,6.46176953125,0.11582530486318282,-9.493559617617725,2.4554639381095766
1758301034110743600,6.47174365234375,0.07369078879721928,-9.496673365724087,2.4450223313331603
1758301034120717600,6.481717529296875,0.036261931954848114,-9.500501399579644,2.430960049841553
1758301034130692600,6.491692626953125,0.0070789442474168025,-9.50481575564742,2.41429664594084
1758301034140666400,6.501666259765625,-0.014317182126216356,-9.509397822740674,2.3961440263956786
1758301034150640400,6.511640380859375,-0.030580303838569668,-9.514541030848026,2.3754930141635238
1758301034160614400,6.521614501953125,-0.04485203596292995,-9.520783724629878,2.3501205263674256
1758301034170588400,6.53158837890625,-0.06405531990507152,-9.52792541307807,2.320550440751016
1758301034180562400,6.5415625,-0.09419617744702845,-9.534945520973205,2.290483657658845
1758301034190537500,6.551537353515625,-0.1338051799236331,-9.541003505837917,2.2631292022652922
1758301034200511500,6.561511474609375,-0.1755111181468703,-9.545908229014277,2.239474185911566
1758301034210485500,6.571485595703125,-0.21324556805640457,-9.550165886458753,2.2179433221049605
1758301034220459500,6.58145947265625,-0.24988327223779633,-9.554551554197072,2.1951060518749057
1758301034230433500,6.59143359375,-0.2844274199397303,-9.560180499994754,2.166202321212739
1758301034240408600,6.60140869140625,-0.3096862730272114,-9.567015898972748,2.1322914299130438
1758301034250382600,6.611382568359375,-0.31991938815210014,-9.573499415773153,2.1014583386234937
1758301034260356600,6.621356689453125,-0.31182416183874007,-9.578814473316072,2.0783404978863893
1758301034270330600,6.63133056640625,-0.28900163252009076,-9.583767127287388,2.0587007085233924
1758301034280304600,6.6413046875,-0.26205292664952573,-9.58797860750258,2.0426434538222846
1758301034290279700,6.65127978515625,-0.2512124019497074,-9.58935574107468,2.0375383857682348
1758301034300253700,6.661253662109375,-0.27358872187081723,-9.587914310094714,2.041428086683154
1758301034310227700,6.671227783203125,-0.32666729150973256,-9.584261632806061,2.050763339652866
1758301034320201700,6.68120166015625,-0.3951584978032857,-9.577712065032124,2.069218303145468
1758301034330175700,6.69117578125,-0.4596812753899023,-9.569473228996992,2.0938674451030788
1758301034340149800,6.701149658203125,-0.4960397790374234,-9.562479424586892,2.117386121726036
1758301034350124500,6.71112451171875,-0.4847617214368656,-9.559024315696954,2.1355187213964757
1758301034360098600,6.7210986328125,-0.42349885896164924,-9.558878185224533,2.1491658462159333
1758301034370072600,6.731072509765625,-0.33027485101502385,-9.55989057713747,2.160972019343823
1758301034380046600,6.741046630859375,-0.2317165145694278,-9.560869066780805,2.1694453947871923
1758301034390020600,6.7510205078125,-0.14316855387613175,-9.562173135116696,2.1713423144496975
1758301034399995600,6.76099560546875,-0.06369707191877533,-9.5643095626235,2.1657094231292606
1758301034409969700,6.7709697265625,0.01521255663842894,-9.566977905049919,2.154780032835901
1758301034419943700,6.780943603515625,0.09915394598487764,-9.569432896986603,2.1416182073153553
1758301034429917700,6.790917724609375,0.18879388489965349,-9.571302197989821,2.1271894305989143
1758301034439891500,6.800891357421875,0.28171056219646706,-9.572233341360091,2.1126688839457928
1758301034449865500,6.810865478515625,0.3741894325979054,-9.571662847995757,2.1008697250805795
1758301034459840500,6.820840576171875,0.4632932553419843,-9.56927039990127,2.093991509874165
1758301034469814500,6.830814453125,0.5463383625689894,-9.565192190676926,2.0925990326024593
1758301034479788500,6.84078857421875,0.6227016904771328,-9.559899929487704,2.095461290165782
1758301034489762600,6.850762451171875,0.693772464935109,-9.553528056368231,2.102178177330643
1758301034499736600,6.860736572265625,0.7595197062827647,-9.546073648709058,2.113287600366026
1758301034509711600,6.870711669921875,0.8179632735535501,-9.537767592656612,2.128926629655063
1758301034519685600,6.880685546875,0.8687474851775914,-9.52900502500832,2.147956178165227
1758301034529659400,6.890659423828125,0.9126696290124208,-9.520361699825525,2.1679776603221894
1758301034539633400,6.90063330078125,0.9505624295551329,-9.512535536244512,2.185975673827529
1758301034549607400,6.910607421875,0.9831839386314153,-9.505919332975148,2.2002830161213875
1758301034559582500,6.92058251953125,1.013669604722783,-9.499862517154217,2.212576826635748
1758301034569556500,6.930556396484375,1.0450658097878098,-9.493218841356038,2.2264392016410826
1758301034579530500,6.940530517578125,1.0757955868333577,-9.485337148195505,2.2453151670247316
1758301034589504500,6.95050439453125,1.1030988234963268,-9.476240234026312,2.2703362110346554
1758301034599478500,6.960478515625,1.1275406063135713,-9.466165999257564,2.3001599791511893
1758301034609452500,6.97045263671875,1.1484326607599853,-9.455453466585277,2.333646215298027
1758301034619427600,6.980427490234375,1.1616839911948889,-9.445016243723034,2.369082270338386
1758301034629401300,6.9904013671875,1.1654664323430508,-9.43687268475592,2.3994779931239782
1758301034639375400,7.000375244140625,1.16540936839357,-9.43178091457486,2.4194502293117344
1758301034649349400,7.010349365234375,1.1748548768047242,-9.427872801220417,2.430087066399306
1758301034659323400,7.020323486328125,1.2023979135729372,-9.422585216206311,2.43711068142578
1758301034669298700,7.030298583984375,1.2491251779563723,-9.414264547106622,2.445745531041175
1758301034679272700,7.040272705078125,1.3064349188916384,-9.402753557533025,2.4600468819856642
1758301034689246700,7.050246826171875,1.3656092846550048,-9.388760103493928,2.481270579539239
1758301034699220700,7.060220703125,1.4218493505321441,-9.37417277521491,2.504717798361182
1758301034709194800,7.07019482421875,1.4729899013131855,-9.360714158704877,2.525412211343646
1758301034719169500,7.08016943359375,1.521272578445077,-9.34862215437293,2.5415257262766358
1758301034729143600,7.0901435546875,1.5710776428386568,-9.336223860570788,2.556759243504703
1758301034739117600,7.10011767578125,1.6266054687932132,-9.322182475736737,2.57321411922127
1758301034749091600,7.110091552734375,1.6870143447875976,-9.306334918263554,2.591623051615059
1758301034759065600,7.120065673828125,1.752362576880306,-9.288317615535854,2.6128108010724187
1758301034769039600,7.13003955078125,1.8218701206095516,-9.268971110031009,2.6338857378050684
1758301034779014700,7.1400146484375,1.8958182771347463,-9.249430543258786,2.6503344760417935
1758301034788988700,7.14998876953125,1.975455439081788,-9.229794699418544,2.660610370862484
1758301034798962700,7.159962646484375,2.0518632637187837,-9.210418383297323,2.66991449804157
1758301034808936700,7.169936767578125,2.112568053919822,-9.193506411463021,2.6808327824190257
1758301034818910700,7.17991064453125,2.1544849954120813,-9.182381206336617,2.6856001429513094
1758301034828885500,7.189885498046875,2.1841730083197355,-9.179427617228031,2.671683845801651
1758301034838859500,7.199859619140625,2.2063595595560965,-9.185304984828829,2.6329671616554258
1758301034848833500,7.20983349609375,2.2170152474746105,-9.19957082606852,2.573542328262329
1758301034858807600,7.2198076171875,2.2101405393995344,-9.220563929736613,2.503376905146241
1758301034868781600,7.229781494140625,2.1904532576330005,-9.243070360577105,2.436787733081728
1758301034878756600,7.239756591796875,2.1699605047024786,-9.259944923010467,2.3906183948419986
1758301034888730600,7.249730712890625,2.156081909214705,-9.26650676574409,2.3777175583451986
1758301034898704600,7.25970458984375,2.1471346326492724,-9.262558320379256,2.4010855744510886
1758301034908678700,7.2696787109375,2.137331031515449,-9.250679082015155,2.4550281770408153
1758301034918652400,7.27965234375,2.124073490535468,-9.233971692842244,2.528334528531134
1758301034928627500,7.28962744140625,2.104269450521469,-9.21536811465919,2.6114044414058326
1758301034938601500,7.2996015625,2.073417070009559,-9.198362619322538,2.694711377906799
1758301034948575500,7.309575439453125,2.038247995342314,-9.187444334945083,2.758039648479223
1758301034958549500,7.319549560546875,2.0019966783963143,-9.186318545785547,2.7881805197209117
1758301034968523500,7.3295234375,1.9487499491162596,-9.195257639044522,2.7964246164530513
1758301034978498600,7.33949853515625,1.8714153650231657,-9.21117066296935,2.796878497700393
1758301034988472600,7.34947265625,1.786183451808989,-9.228094325241447,2.79681916872859
1758301034998446600,7.359446533203125,1.7136811101779341,-9.238798674607276,2.806829982872307
1758301035008420400,7.36942041015625,1.657436368125677,-9.240853269049525,2.833712729100883
1758301035018394400,7.379394287109375,1.6176302813075483,-9.23619930576384,2.8716330021724104
1758301035028368400,7.389368408203125,1.5922564783371984,-9.22659210398495,2.9163486344724894
1758301035038343700,7.39934375,1.567516004834324,-9.213509919571877,2.97060892470926
1758301035048317700,7.409317626953125,1.5284107597619294,-9.199116652560233,3.03489639570266
1758301035058292000,7.4192919921875,1.4674471724942326,-9.186261847162246,3.1031530625879764
1758301035068266000,7.429265869140625,1.3922080993756651,-9.176984315729142,3.1646663926929235
1758301035078240000,7.439239990234375,1.322866413732618,-9.17036460532844,3.213226133200526
1758301035088214800,7.44921484375,1.2770093563124536,-9.16331585586071,3.251656401620805
1758301035098188800,7.459188720703125,1.259876727464795,-9.157018801543115,3.2759885865837335
1758301035108162800,7.469162841796875,1.2722859810523688,-9.155732268863916,3.2747879786223173
1758301035118136800,7.47913671875,1.3129934006243944,-9.162633134293555,3.2392233287662267
1758301035128110800,7.48911083984375,1.3703972495838999,-9.180701290425658,3.1634000260189175
1758301035138086000,7.4990859375,1.4172487248688936,-9.212075502854585,3.0494983370289206
1758301035148060000,7.509059814453125,1.4180233625032006,-9.258537978821993,2.905010078856349
1758301035158034000,7.519033935546875,1.348576170659065,-9.317572936114669,2.7449150862291454
1758301035168008000,7.529008056640625,1.2078587362620978,-9.384125429430604,2.578691381588578
1758301035177982000,7.53898193359375,1.0109422255855054,-9.453557277575134,2.4038791506923736
1758301035187956700,7.548956787109375,0.7978826085552573,-9.51693932416141,2.2274761434733867
1758301035197930800,7.5589306640625,0.6168733496498316,-9.565962006005645,2.0693512818753717
1758301035207904800,7.56890478515625,0.5087779723184183,-9.594956629821658,1.961714936890453
1758301035217878800,7.578878662109375,0.47978057202342894,-9.599935002756117,1.9445958981767295
1758301035227852800,7.588852783203125,0.4685628663079813,-9.579787117740512,2.0441436292521655
1758301035237827800,7.598827880859375,0.3693385950332507,-9.535479773980379,2.2602222287774083
1758301035247801900,7.6088017578125,0.11767366354307159,-9.468642618504166,2.5497712843134996
1758301035257775900,7.61877587890625,-0.1781795884374529,-9.412900273016094,2.7451646770760414
1758301035267750000,7.62875,-0.2994622179916128,-9.413823817601799,2.7314140918821095
1758301035277724000,7.638723876953125,-0.25533218529345464,-9.442024660691619,2.6369217445001003
1758301035287698700,7.64869873046875,-0.1747164423715323,-9.466856319609283,2.5531395917028186
1758301035297672700,7.658672607421875,-0.11836946378750726,-9.484218373298644,2.491179686874151
1758301035307646700,7.668646728515625,-0.07649261684361845,-9.493964691287278,2.4554379268854856
1758301035317620700,7.678620849609375,-0.007044011643819976,-9.49632908233106,2.447464609918743
1758301035327594800,7.6885947265625,0.12247015883829444,-9.493707501655816,2.454568450574577
1758301035337569800,7.69856982421875,0.30042118095057085,-9.488093753427266,2.460938862389326
1758301035347543800,7.708543701171875,0.48538069358542557,-9.482334459248184,2.453594637106359
1758301035357517800,7.718517822265625,0.6464541758559644,-9.48256709896028,2.415244448184967
1758301035367491800,7.728491943359375,0.7780152940467,-9.492651270601153,2.3355228228248652
1758301035377465600,7.738465576171875,0.8959805061485617,-9.50907107500434,2.223778019607812
1758301035387441000,7.74844091796875,1.019408513700962,-9.525814704534412,2.0952439941532908
1758301035397415000,7.758414794921875,1.1584478588178753,-9.537029341509937,1.9681050763189791
1758301035407389000,7.768388916015625,1.3113039862327276,-9.539456860917806,1.8573105595640838
1758301035417363000,7.778363037109375,1.4692198812551795,-9.533335163167118,1.768418224146217
1758301035427337000,7.7883369140625,1.6167090748094022,-9.521928218489885,1.6998627204447985
1758301035437310700,7.798310791015625,1.7379910833090542,-9.508989241939782,1.6519352864913641
1758301035447286000,7.8082861328125,1.8172021287985145,-9.4975396271646,1.6324546332128345
1758301035457259800,7.818259765625,1.8419656909160316,-9.489645659044385,1.6505116834290325
1758301035467233800,7.82823388671875,1.8092444477923213,-9.486359476980567,1.7047051920399068
1758301035477207800,7.838207763671875,1.7364346476472914,-9.486608483305574,1.7774825512200594
1758301035487181800,7.848181884765625,1.6481763723492622,-9.489992280524968,1.842268034863472
1758301035497156900,7.858156982421875,1.5565690788842736,-9.49780324653685,1.881276103171706
1758301035507131000,7.868130859375,1.4607299930684268,-9.511040329250692,1.8912386942595243
1758301035517105000,7.87810498046875,1.3601537957280874,-9.530304417169093,1.8691317841306327
1758301035527079000,7.888078857421875,1.2643586951844394,-9.55457551959455,1.8115870653957127
1758301035537053000,7.898052978515625,1.1856233043827116,-9.580845686882734,1.7239758558295666
1758301035547027700,7.90802783203125,1.1290987955410032,-9.60494552439451,1.6249838589407504
1758301035557001700,7.918001708984375,1.0945255678750574,-9.62371218418479,1.535108796095848
1758301035566975700,7.927975830078125,1.07991990022175,-9.637135729381441,1.4593793091118334
1758301035576949800,7.93794970703125,1.0817603404566645,-9.646526658061147,1.3945270438425241
1758301035586923800,7.947923828125,1.1064740720830857,-9.65198258537948,1.3361599028088151
1758301035596898800,7.95789892578125,1.165239857045561,-9.652966335719823,1.277818042346835
1758301035606872800,7.967872802734375,1.2491210863031446,-9.650853873610496,1.21289030068852
1758301035616846800,7.977846923828125,1.3130511221610008,-9.651733579054474,1.1359157090142369
1758301035626820900,7.98782080078125,1.305885760576278,-9.662151512694358,1.052555288760364
1758301035637417700,7.998417724609375,1.206610416701436,-9.682298813188076,0.9836564515139907
1758301035647392800,8.008392822265625,1.0691603135373442,-9.698192547890544,0.9860839709218591
1758301035657366800,8.01836669921875,0.9683307259578258,-9.699945529037713,1.0694886687088758
1758301035667340800,8.0283408203125,0.9516372922450304,-9.691583943405746,1.1567127055883406
1758301035677314800,8.038314697265625,0.9806607768293469,-9.681928810831904,1.2120013159595429
1758301035687288800,8.048288818359374,0.985406729247421,-9.676987262776493,1.2471139842644332
1758301035697263600,8.058263671875,0.9461117337565869,-9.676771574199199,1.2788145060382783
1758301035707237600,8.068237548828124,0.8793301078598946,-9.676959790247679,1.3242349256068466
1758301035717211600,8.078211669921876,0.7981897748082876,-9.675179921093582,1.3871443862453103
1758301035727185700,8.088185546875,0.714362979151681,-9.67115607240498,1.4590421861119567
1758301035737159700,8.09815966796875,0.6338575099375099,-9.665660982120036,1.5308793418325484
1758301035747135000,8.108135009765626,0.5557197562353685,-9.659940850907564,1.5959660003796219
1758301035757109000,8.11810888671875,0.48364396945331245,-9.655365213555097,1.6463224150456488
1758301035767083000,8.1280830078125,0.433838393603079,-9.652906129965185,1.6743905716665088
1758301035777057000,8.13805712890625,0.43121385378576815,-9.650614804157614,1.6882221131421624
1758301035787030800,8.14803076171875,0.48078514595609156,-9.645122051960229,1.7061165201425552
1758301035797005800,8.158005859375,0.5758575947809964,-9.634349313533306,1.737264230339229
1758301035806979800,8.167979736328125,0.702693218819797,-9.61938438411355,1.773144083624333
1758301035816953900,8.177953857421874,0.8290343373399227,-9.605523032021521,1.7936038110680876
1758301035826927900,8.187927978515624,0.9140865831382572,-9.601692660078406,1.7726625837177037
1758301035836902000,8.19790185546875,0.9299186507813632,-9.613407647791504,1.699419652852416
1758301035846877000,8.207876953125,0.8733001069806515,-9.638173255735635,1.5853541516028344
1758301035856851000,8.217850830078126,0.7553670435827226,-9.671664606449008,1.4348282207012175
1758301035866825000,8.227824951171876,0.5901892677985131,-9.70989526064396,1.2409759199008346
1758301035876799000,8.237799072265625,0.40662605009395625,-9.745341252556443,1.0165564852707087
1758301035886773000,8.24777294921875,0.2443289443125948,-9.771596806797385,0.7915900112170725
1758301035896747800,8.257747802734375,0.12897603360097853,-9.787424490526318,0.6000535130783915
1758301035907345700,8.268345703125,0.07129237675282638,-9.795399707189201,0.46416981898080556
1758301035917319700,8.278319580078126,0.10935847433609887,-9.796938168802857,0.42239608535151923
1758301035927293700,8.288293701171876,0.2730095520096831,-9.791012870407103,0.4815585780140012
1758301035937267700,8.298267822265625,0.42071430627703665,-9.776313898447155,0.645830564064905
1758301035947241700,8.30824169921875,0.32049046603832393,-9.754786541771889,0.9548921293225139
1758301035957216800,8.318216796875,-0.02629996420482639,-9.708771225050091,1.3818283057890832
1758301035967190800,8.328190673828125,-0.44018973539117723,-9.6672953053236,1.587447616750747
1758301035977164800,8.338164794921875,-0.6002045754542574,-9.691676882386208,1.3716954727008939
1758301035987138800,8.348138916015625,-0.44380441875699905,-9.735849201589822,1.089349407346174
1758301035997112800,8.35811279296875,-0.19363957136515528,-9.762097157046199,0.9134299458604306
1758301036007087600,8.368087646484375,0.0069136244465131304,-9.774318925237655,0.7956360717374831
1758301036017061600,8.3780615234375,0.11114606100576929,-9.779688927838206,0.7181496580835431
1758301036027035600,8.38803564453125,0.13035078341974876,-9.781106393420696,0.6952587579701095
1758301036037009700,8.398009765625,0.16406354919830335,-9.779151167699695,0.7153221795726568
1758301036046985000,8.40798486328125,0.2917499813801609,-9.772459561106562,0.7644010485835373
1758301036056958200,8.417958251953126,0.4965297910440713,-9.759617615190148,0.8207991545666009
1758301036066932200,8.42793212890625,0.6955648282445966,-9.747053317171334,0.8255421843752264
1758301036076906200,8.43790625,0.8259784569006413,-9.742315182733535,0.758580964127928
1758301036086880300,8.44788037109375,0.913299816674739,-9.742854111915825,0.6426830598194152
1758301036096855000,8.45785498046875,1.0205642596073448,-9.74057213845849,0.5000950823102146
1758301036106829000,8.4678291015625,1.1723728507306426,-9.729529350918531,0.36358569406233726
1758301036116803000,8.477802978515625,1.349829677851498,-9.70963047222793,0.26727805915297936
1758301036126777000,8.487777099609374,1.5109944916673004,-9.686921796813607,0.22549237935757263
1758301036136751000,8.497751220703124,1.6203129445202649,-9.669126027882099,0.2301800257171504
1758301036146726100,8.50772607421875,1.666163718330115,-9.660196871495247,0.2736219848196022
1758301036156700200,8.5177001953125,1.6546435225367546,-9.659690675538778,0.3506316660735756
1758301036166674200,8.527674072265626,1.6015674736484884,-9.664639822378755,0.4473342003183439
1758301036176648200,8.537648193359376,1.5306884954355655,-9.671011110976337,0.5467341934861615
1758301036186622200,8.547622314453125,1.4626498552151024,-9.676076577672362,0.6360611574616283
1758301036196597200,8.55759716796875,1.4018703923426568,-9.68079834549725,0.6980522611461579
1758301036206571300,8.5675712890625,1.3373976279102264,-9.688508189222215,0.7173235825229436
1758301036216545300,8.577545166015625,1.2586135756611823,-9.700692548012732,0.694878380350396
1758301036226519300,8.587519287109375,1.1715581002816557,-9.715433021026849,0.6388890743639319
1758301036236494300,8.597494384765625,1.0907836048677564,-9.729404847756028,0.5650364141024649
1758301036246468400,8.60746826171875,1.028427321132645,-9.740227855065465,0.4906157081620767
1758301036256442400,8.6174423828125,0.9878813757326453,-9.747588154700399,0.423100580359064
1758301036266416400,8.62741650390625,0.9662716014709323,-9.752442024472355,0.35578634542301296
1758301036276390400,8.637390380859374,0.9715233845192939,-9.75431833973825,0.28248337319986894
1758301036286365200,8.647365234375,1.0243548840619623,-9.750929281821847,0.20109248118698594
1758301036296339200,8.657339111328126,1.132142985542491,-9.74042016276717,0.11337750985226593
1758301036306313200,8.667313232421876,1.2618133946157992,-9.72511094995439,0.02030444326720899
1758301036316287200,8.677287353515625,1.3581822033941744,-9.711877958893776,-0.07183832933094818
1758301036326261200,8.68726123046875,1.3730673455759883,-9.709140058362484,-0.1328660724426154
1758301036336236300,8.697236328125,1.2930587199680506,-9.720285137233137,-0.12018232189575209
1758301036346210300,8.707210205078125,1.1700623087659479,-9.73648691497147,-0.04657608784313779
1758301036356184300,8.717184326171875,1.0860249390985817,-9.746315650546551,0.016016890724678524
1758301036366158300,8.727158447265625,1.0922894793860614,-9.74554992687106,0.038966361758089624
1758301036376133000,8.737133056640625,1.1359658317662775,-9.740524207663535,0.04634072645099368
1758301036386107100,8.747107177734375,1.1511071406662463,-9.7385935318619,0.07160039695580489
1758301036396081200,8.7570810546875,1.1270915473718195,-9.740799517473578,0.12989209813312627
1758301036406055200,8.76705517578125,1.0806462417349219,-9.74447265302837,0.21872367067392914
1758301036416030200,8.7770302734375,1.0292097036819905,-9.74702467559874,0.32650917833857235
1758301036426004200,8.787004150390626,0.9838479554980992,-9.747163207286595,0.44188254731632765
1758301036435978200,8.796978271484376,0.9485086388304829,-9.744787710326909,0.5566552104545757
1758301036445952300,8.8069521484375,0.9211926888164133,-9.740212657496333,0.6708725777976214
1758301036455926300,8.81692626953125,0.8987686024971305,-9.733766550096869,0.785116212093085
1758301036465901000,8.826901123046875,0.8774722780987619,-9.726132109695673,0.8959829903665929
1758301036475875000,8.836875,0.8615520937807858,-9.718180273908375,0.9925109352294355
1758301036485849000,8.84684912109375,0.8644668852489441,-9.710624159440398,1.0615472812503575
1758301036495823000,8.856822998046875,0.8874106115281581,-9.704701199132204,1.0961972274143248
1758301036505798400,8.86679833984375,0.923517040110752,-9.701582774850726,1.0939791129734366
1758301036515772400,8.8767724609375,0.9642515668854117,-9.70192705824375,1.0551057769607752
1758301036525746400,8.886746337890624,0.990105554588139,-9.707235101523995,0.9796269037369638
1758301036535720400,8.896720458984374,0.977891677442193,-9.71907050074637,0.8682107479523867
1758301036545695200,8.9066953125,0.9223949772782624,-9.736004684412478,0.7278761023279279
1758301036555669200,8.916669189453126,0.8358947976939379,-9.754232999542355,0.5714978286689147
1758301036565643300,8.926643310546876,0.7285567050032318,-9.770848618778587,0.4124731321543455
1758301036575617300,8.9366171875,0.6065992083948105,-9.784444597932696,0.25897753779217597
1758301036585591300,8.94659130859375,0.4788012786624953,-9.794361011791228,0.10784547595726325
1758301036595566300,8.95656640625,0.36562578505519777,-9.799763163095712,-0.0366281668847776
1758301036605540400,8.966540283203125,0.2832442015045322,-9.801396901777386,-0.15101388794849627
1758301036615514400,8.976514404296875,0.26691377415154127,-9.801026899421215,-0.19751531681995838
1758301036625488400,8.98648828125,0.32155776647627354,-9.800218505647777,-0.1506771668074187
1758301036635463200,8.996463134765625,0.32404165571387855,-9.801290518793463,-0.009302249745008885
1758301036645437200,9.006437255859375,0.08790389063609763,-9.802544318246841,0.2697868819024414
1758301036655411200,9.0164111328125,-0.31565413192305714,-9.78574165200591,0.556819936029613
1758301036665385200,9.02638525390625,-0.5891507550636306,-9.770808286768197,0.5954873011413961
1758301036675360300,9.0363603515625,-0.5885898697778582,-9.778761876121163,0.44694677190333604
1758301036685334300,9.046334228515626,-0.435342514555715,-9.792280698385834,0.3035141785298474
1758301036695308300,9.056308349609376,-0.29363670844221484,-9.799735106045008,0.22222629023371263
1758301036705282300,9.0662822265625,-0.2245421111617237,-9.8022292609483,0.19044435552041977
1758301036715256300,9.07625634765625,-0.1927499655816704,-9.803035901156067,0.18367882517455145
1758301036725231000,9.086231201171875,-0.14715300213610752,-9.803595873126387,0.19559331751512363
1758301036735205000,9.096205078125,-0.035666363514761906,-9.803779997521639,0.23453862278545273
1758301036745179100,9.10617919921875,0.1460606677216012,-9.801046773165464,0.2975339898753911
1758301036755153200,9.116153076171875,0.34723029666487126,-9.794166950523852,0.35228626488018777
1758301036765128200,9.126128173828125,0.5089157733539119,-9.786779178360105,0.3610166107593104
1758301036775102200,9.136102294921875,0.61360806424357,-9.78219886483252,0.3200813737807795
1758301036785076200,9.146076171875,0.6955435662608593,-9.778854230579734,0.24619632735336197
1758301036795050200,9.15605029296875,0.7931468852702528,-9.773347449856995,0.15167539319768547
1758301036805025300,9.166025390625,0.914315934914723,-9.763767136085033,0.05726333537711761
1758301036814999300,9.175999267578124,1.0481262202717363,-9.75047452379167,-0.00881210188268742
1758301036824973300,9.185973388671876,1.173396786950901,-9.736123342356086,-0.03767257963748416
1758301036834947300,9.195947265625,1.2691938602559267,-9.724130706745386,-0.028410099643038117
1758301036844922400,9.20592236328125,1.3310793846741318,-9.715874335053563,0.02019563314747065
1758301036854896400,9.215896484375,1.3585467989228666,-9.711615508565306,0.09630526942233554
1758301036864870400,9.225870361328125,1.3491263518877326,-9.71166343936026,0.18395550495777277
1758301036874844400,9.235844482421875,1.3032311544142663,-9.715966689512133,0.2682274505659938
1758301036884818400,9.245818359375,1.22664709642753,-9.723596453738212,0.34261487529128787
1758301036894793200,9.255793212890625,1.1324023671310395,-9.732759418880939,0.40179928752463306
1758301036904767200,9.265767333984375,1.033848761659488,-9.742388832491637,0.4328933313053101
1758301036914741200,9.2757412109375,0.9368293069526552,-9.752498138573765,0.4260566536856815
1758301036924715300,9.28571533203125,0.8431129854444414,-9.76272785616517,0.3856073005279526
1758301036934690300,9.295690185546874,0.7553850906960665,-9.77201473994851,0.32786537872049953
1758301036944664300,9.305664306640624,0.6769213564425707,-9.779616447123885,0.2669636229089461
1758301036954638300,9.315638427734376,0.611616671230644,-9.785358790168166,0.20751049500312654
1758301036964612400,9.3256123046875,0.5626777586797252,-9.789465056443214,0.14206277545816265
1758301036974587100,9.335587158203126,0.5422158027462661,-9.791422035729884,0.0667853293908527
1758301036984561200,9.34556103515625,0.5730676352689043,-9.789878897941112,-0.015453141053317812
1758301036994535200,9.35553515625,0.6661920918311923,-9.783474876117706,-0.10093271916043013
1758301037004509200,9.36550927734375,0.7894191699840128,-9.772889769217372,-0.1944424121806398
1758301037014483200,9.375483154296875,0.8956258474919945,-9.760893626475333,-0.3052686575143598
1758301037024458200,9.385458251953125,0.9509737137697637,-9.7515950522542,-0.4152385417470708
1758301037034432300,9.395432373046875,0.9409438295993954,-9.75025123642981,-0.4665019517228007
1758301037044406300,9.40540625,0.8613782715838402,-9.759540458300709,-0.42399804065544155
1758301037054380300,9.41538037109375,0.776106026359275,-9.769529937395452,-0.35262557983715087
1758301037064356400,9.4253564453125,0.7676377654824406,-9.771972069850563,-0.29946892172703515
1758301037074330400,9.435330322265624,0.8281456448718905,-9.768275553420185,-0.25559949446013197
1758301037084304400,9.445304443359374,0.885449686718732,-9.76457260724902,-0.19875302365506067
1758301037094278400,9.4552783203125,0.8983921704001724,-9.76474153407514,-0.11447605481185018
1758301037104253200,9.465253173828126,0.8677040405392646,-9.768186121571063,-0.00443277141196595
1758301037114227200,9.475227294921876,0.8122678383909165,-9.772227505916357,0.11903769103842787
1758301037124201200,9.485201171875,0.7522593598909676,-9.774678990721702,0.24521964607462285
1758301037134175200,9.49517529296875,0.6954500427585095,-9.77490636973679,0.37140144584719087
1758301037144150300,9.505150390625,0.6400716352120042,-9.773020702120661,0.4987560887914151
1758301037154124300,9.515124267578125,0.5869235440008342,-9.769374454572796,0.6206868435233831
1758301037164098300,9.525098388671875,0.5441303676633163,-9.764739195987582,0.7240048869177699
1758301037174072300,9.535072265625,0.5306838799824938,-9.759432906273007,0.8013875479362904
1758301037184047000,9.545047119140625,0.5647270193597301,-9.753101365163921,0.8534997202284633
1758301037194021000,9.555021240234375,0.6520574757557362,-9.745260588535666,0.8804028516579419
1758301037203995100,9.5649951171875,0.7788875468365848,-9.735784319660066,0.8821712495699524
1758301037213969200,9.57496923828125,0.9057830843690782,-9.726976743826269,0.8578352652147412
1758301037223944400,9.5849443359375,0.9823568401575088,-9.724338796538113,0.8016257406063377
1758301037233918500,9.59491845703125,0.9735046945296227,-9.732138072112201,0.7128451949998736
1758301037243892500,9.604892578125,0.8792170028742402,-9.74857132051885,0.6022597909510136
1758301037253866200,9.6148662109375,0.7217834845412522,-9.768198396530746,0.4813754765320569
1758301037263840300,9.62484033203125,0.5329218681676313,-9.785672093901038,0.356407071137242
1758301037273815300,9.634815185546875,0.3488191732915118,-9.797930102449655,0.2220173601907678
1758301037283789300,9.644789306640625,0.20142971378471702,-9.804272749474643,0.0778580234453082
1758301037293763300,9.654763427734375,0.10043572942372411,-9.805969031998515,-0.057201545020169574
1758301037303737300,9.6647373046875,0.03373049323149025,-9.805354114970564,-0.15582462183162568
1758301037313712400,9.67471240234375,-0.00047056445249218085,-9.804681914797424,-0.19646242849985138
1758301037323686400,9.684686279296875,0.03934862537421286,-9.80521499876082,-0.16314592289673163
1758301037333660400,9.694660400390624,0.12568032565698958,-9.805802443259953,-0.028939897954091427
1758301037343634400,9.704634521484374,0.03031818002037471,-9.802815536403655,0.2725629772859625
1758301037353609200,9.714609130859374,-0.3592703881464898,-9.776580440428852,0.6780800980236381
1758301037363583200,9.724583251953124,-0.7487680106438696,-9.740995916828513,0.8501317781653255
1758301037373557200,9.73455712890625,-0.8669530760414897,-9.743521635913849,0.694652754900977
1758301037383531300,9.74453125,-0.7438527660734952,-9.766040926235913,0.49145760234631597
1758301037393506300,9.75450634765625,-0.5560990378765389,-9.784332954251765,0.3577262639770284
1758301037403480300,9.764480224609375,-0.4317732047015801,-9.793635035604238,0.26204770248513665
1758301037413454300,9.774454345703125,-0.3733199928196147,-9.797758837535977,0.18698983115237205
1758301037423428400,9.784428466796875,-0.328136195018515,-9.799949625578522,0.15400778166800735
1758301037433403100,9.794403076171875,-0.23006914922120048,-9.802497556495666,0.16875070236753673
1758301037443377200,9.804377197265625,-0.06967302735610864,-9.80377707491219,0.22694712647683918
1758301037453351200,9.81435107421875,0.11761850842288694,-9.801364168551563,0.29972589216278867
1758301037463325200,9.8243251953125,0.28921361303664744,-9.796267137673496,0.3462613785674795
1758301037473300200,9.83430029296875,0.4242290729323402,-9.791340202665328,0.34650523379333314
1758301037483274200,9.844274169921874,0.5365277471724897,-9.787323952761293,0.3013232626231387
1758301037493248300,9.854248291015624,0.6572805441662669,-9.782193019613622,0.21699964162660762
1758301037503222300,9.86422216796875,0.8005329769335686,-9.773198981297016,0.11874893722492269
1758301037513196300,9.8741962890625,0.9526691195107996,-9.760152452719211,0.04712292633724864
1758301037523171300,9.88417138671875,1.0929191555917261,-9.745534729301928,0.02163635859125061
1758301037533145300,9.894145263671875,1.2062131610121578,-9.732098324623703,0.04106886416240595
1758301037543119400,9.904119384765625,1.2804213567130267,-9.722190094071626,0.09968094726735725
1758301037553093400,9.91409326171875,1.3095342000812291,-9.716990187340974,0.1886684684216976
1758301037563068400,9.924068359375,1.2913532312244176,-9.71686743774414,0.29203886305782945
1758301037573042400,9.93404248046875,1.2357340737245976,-9.72033715968132,0.3980061423193663
1758301037583016400,9.944016357421875,1.1637047564327716,-9.724604753997921,0.49824211138729
1758301037592990500,9.953990478515625,1.091496063986048,-9.72831646799743,0.5821516168912872
1758301037602965200,9.96396533203125,1.0230591451629996,-9.732661219203472,0.6316992359250784
1758301037612939300,9.973939208984374,0.948224488126859,-9.740002229616046,0.6353055167887359
1758301037622913300,9.983913330078124,0.8621664993520826,-9.7501951223284,0.6006146175598726
1758301037632887300,9.99388720703125,0.7730171204332262,-9.760910577610135,0.5453763126038015
1758301037642862300,10.0038623046875,0.6953828958064318,-9.769792972245812,0.48780543651431796
1758301037652836400,10.01383642578125,0.6346813204757868,-9.776532509633897,0.43238918117545544
1758301037662810400,10.023810302734375,0.5915092643558979,-9.781933491894602,0.3664474767016247
1758301037672784400,10.033784423828125,0.5797548214152455,-9.785324887898565,0.28580785971377043
1758301037682759200,10.04375927734375,0.6310604996301233,-9.78432477094531,0.19781720410967243
1758301037692733200,10.053733154296875,0.7531378962911665,-9.77709014351666,0.1082014863207005
1758301037702707200,10.063707275390625,0.8979621814850717,-9.765444713908433,0.012090407171548577
1758301037712681200,10.07368115234375,1.004999099272117,-9.754631058949231,-0.08673864624900743
1758301037722656300,10.08365625,1.0542428765211254,-9.748619251313805,-0.15290832339297047
1758301037732630300,10.09363037109375,1.0395885474205016,-9.750135501095652,-0.15656996030621229
1758301037742604300,10.103604248046874,0.9601751842919737,-9.758639710068703,-0.13193449981408192
1758301037752578300,10.113578369140624,0.8881983278397471,-9.765564540895818,-0.12353748667570762
1758301037762553000,10.123552978515624,0.8972283142525702,-9.764700033020972,-0.1264459762672428
1758301037772527000,10.133527099609376,0.978210899459198,-9.75698434407711,-0.12135284524615854
1758301037782501000,10.143501220703126,1.0670469746451825,-9.748054603168368,-0.08495253915037028
1758301037792475100,10.15347509765625,1.1147934260085224,-9.743080321887135,-0.0009817805044283886
1758301037802450400,10.163450439453126,1.1117568347916007,-9.742645437601208,0.12346190068884752
1758301037812424400,10.173424560546875,1.083704094935581,-9.742965755596757,0.26571422563605007
1758301037822398500,10.1833984375,1.0568045437026767,-9.740866152969001,0.4111697944708168
1758301037832372500,10.19337255859375,1.0351460349284112,-9.735868490812182,0.5583353455612435
1758301037842346500,10.203346435546875,1.0095561049893498,-9.728877024489641,0.7072117191575468
1758301037852321300,10.2133212890625,0.979253028923273,-9.721018127682804,0.8445473290964961
1758301037862295300,10.22329541015625,0.9570827712345867,-9.712983289787173,0.9551596211522817
1758301037872269300,10.233269287109374,0.9582954349599778,-9.704739777576922,1.034445558508858
1758301037882243300,10.243243408203124,0.9854376358423381,-9.697258481910824,1.0781843086007983
1758301037892218400,10.25321826171875,1.0387731393843889,-9.691480483031272,1.0800682957164942
1758301037902192400,10.2631923828125,1.1076453808847815,-9.688589437764882,1.0366877114124595
1758301037912166400,10.27316650390625,1.1596327577535062,-9.691468208071589,0.9492528813265263
1758301037922140400,10.283140380859376,1.1692703546706587,-9.701938748681545,0.8219259666394442
1758301037932115200,10.293115234375,1.1371582564212381,-9.717681676736474,0.6662719521343707
1758301037942089200,10.303089111328125,1.072110541645065,-9.735426592263579,0.49235948308948424
1758301037952063200,10.313063232421875,0.9764856100365519,-9.753139943608641,0.3051634983731434
1758301037962037200,10.323037353515625,0.8516927438717335,-9.76897522612214,0.11019107096903026
1758301037972012300,10.33301220703125,0.7031232077348977,-9.781016961571574,-0.08785894638267346
1758301037981986300,10.342986328125,0.5513577981662005,-9.78755366986394,-0.26488204912822694
1758301037991960300,10.352960205078125,0.44729817915689196,-9.789345813977718,-0.3728474799370393
1758301038001934300,10.362934326171874,0.35088381420373915,-9.793875858622789,-0.35674718981180337
1758301038011909000,10.3729091796875,0.09470588966798968,-9.805199216669797,-0.1396396034318488
1758301038021883100,10.382883056640624,-0.29418078872365877,-9.801453015878796,0.12401780840540304
1758301038031857200,10.392857177734374,-0.6078994408058003,-9.785522456297278,0.21074109268849714
1758301038041831200,10.4028310546875,-0.7176265109922736,-9.779093300032615,0.15729613742260262
1758301038051806200,10.41280615234375,-0.7163305528976023,-9.780078803938627,0.08554897980671375
1758301038061779500,10.422779541015625,-0.7121909688748419,-9.780596690332889,0.055879995826515365
1758301038071753500,10.43275341796875,-0.7138946309875697,-9.780199799969791,0.09195604297057725
1758301038081727500,10.4427275390625,-0.6707693366188555,-9.78234850243628,0.16168202435662968
1758301038091702500,10.45270263671875,-0.5598046874614432,-9.7882416521281,0.21753941105911506
1758301038101676500,10.462676513671875,-0.3753753179142251,-9.796033328917622,0.2592157852611504
1758301038111650600,10.472650634765625,-0.12740900347996503,-9.800843944069742,0.3124317723430693
1758301038121624600,10.48262451171875,0.12792377546853384,-9.798410579442978,0.3810452167768031
1758301038131599400,10.492599365234375,0.3120981930071488,-9.792403447982668,0.426406526569277
1758301038141573400,10.502573486328124,0.40521990962307897,-9.790102185302972,0.40014326394591476
1758301038151547400,10.51254736328125,0.4558340619098395,-9.791216284024715,0.3077299147950485
1758301038161521400,10.522521484375,0.5175384576074779,-9.791184719842672,0.18775613934975116
1758301038171496400,10.532496337890626,0.6146596191231161,-9.787202372208236,0.0572237522854004
1758301038181470500,10.542470458984376,0.7555886504441499,-9.777210555025935,-0.07518017797160427
1758301038191444500,10.552444580078125,0.9356082407251,-9.760086986267567,-0.1890542346025817
1758301038201418500,10.56241845703125,1.1368361848600208,-9.736775084263085,-0.2706010295632295
1758301038211393300,10.572393310546875,1.3304228204615414,-9.711101129302381,-0.3080259020669386
1758301038221367300,10.5823671875,1.4874629555627703,-9.688642629256844,-0.2967337428757921
1758301038231341300,10.59234130859375,1.5924595996938644,-9.673475455263256,-0.24155776256620884
1758301038241315300,10.6023154296875,1.6372687554962932,-9.667783965623379,-0.15389520640531554
1758301038251290400,10.612290283203125,1.618509109968692,-9.672063834899664,-0.04489434530127328
1758301038261264400,10.622264404296875,1.5468280215926467,-9.683640290924906,0.06937414030765648
1758301038271238400,10.63223828125,1.441749690527469,-9.698618079826236,0.1690122211142443
1758301038281212400,10.64221240234375,1.326397948859632,-9.713647891175746,0.23682110769944265
1758301038291187500,10.6521875,1.218884572667256,-9.726980835479498,0.2656207204000093
1758301038301161500,10.662161376953126,1.1250794038318097,-9.738619250825048,0.2527211625448428
1758301038311135500,10.672135498046876,1.0475370222069322,-9.748504685023427,0.19925459823533892
1758301038321109500,10.682109619140626,0.9839502468287944,-9.756514388477802,0.11249322869786992
1758301038331084500,10.69208447265625,0.9389236488834023,-9.761596221786737,0.007035343138530151
1758301038341058600,10.70205859375,0.9325402314566075,-9.761670456066726,-0.10270643256837501
1758301038351032600,10.712032470703125,0.9884007234316319,-9.754605924507976,-0.20271564367571845
1758301038361006600,10.722006591796875,1.117369998498261,-9.738572489073873,-0.28647834285385904
1758301038370981400,10.7319814453125,1.2828572055578231,-9.715750416412948,-0.3589750219291076
1758301038380955400,10.741955322265625,1.4145049791187048,-9.694241179916261,-0.43731337623726574
1758301038390929400,10.751929443359375,1.4565345872052013,-9.683289577791093,-0.531793010268174
1758301038400903400,10.7619033203125,1.3938101277448236,-9.687576461330055,-0.6152553199939429
1758301038410878500,10.77187841796875,1.2457672458305955,-9.703860072132944,-0.6734567490719259
1758301038420852500,10.7818525390625,1.0898900170288979,-9.719278590539098,-0.7198314006254076
1758301038430826500,10.791826416015626,1.0056997948873787,-9.726320325744151,-0.7467474646016955
1758301038440801300,10.80180126953125,1.0452444542903452,-9.72221932016611,-0.7458639597654342
1758301038450775300,10.811775390625,1.1897083086740226,-9.707715578517318,-0.717805447755754
1758301038460749300,10.821749267578125,1.3381382171444594,-9.692520347473025,-0.6594224515657872
1758301038470723300,10.831723388671875,1.3978215553432702,-9.689197340530157,-0.5795926165908575
1758301038480698400,10.841698486328125,1.3634747568443417,-9.699418290293217,-0.4823151685349643
1758301038490672400,10.85167236328125,1.280893504269421,-9.715582074108719,-0.3703632619058713
1758301038500646400,10.861646484375,1.2024998395774513,-9.729444010722636,-0.24962294080117717
1758301038510620400,10.871620361328125,1.161291777006909,-9.736813078185916,-0.12758265214697456
1758301038520595500,10.881595458984375,1.1503547879289835,-9.73894658308327,-0.004269561655168945
1758301038530569500,10.891569580078125,1.1467098555553703,-9.73859703899324,0.12314007572280242
1758301038540543500,10.90154345703125,1.1343040360338985,-9.737646606400608,0.248958156749513
1758301038550517200,10.911517333984374,1.1095265184562653,-9.7368423042804,0.36501824761610474
1758301038560492500,10.921492431640624,1.0817776569176465,-9.73575860069692,0.463822357250005
1758301038570466600,10.931466552734374,1.0603818176675588,-9.734366269555688,0.5367324028991163
1758301038580440600,10.941440673828126,1.0510555517219007,-9.733355631208418,0.5722269831936806
1758301038590414600,10.95141455078125,1.0599863886091858,-9.733007256162166,0.561607133773528
1758301038600389400,10.961389404296876,1.0826914838269353,-9.733495331940054,0.5071710485784336
1758301038610363400,10.97136328125,1.0989281867481768,-9.736073657995462,0.41427937785871327
1758301038620337400,10.98133740234375,1.087584589630738,-9.741902510279417,0.28789071213612333
1758301038630311400,10.9913115234375,1.0401383633229881,-9.75038275385499,0.13612428878727367
1758301038640286500,11.001286376953125,0.9609032793708145,-9.759416539660096,-0.02886890822724672
1758301038650260500,11.011260498046875,0.8607090670853853,-9.766862764012814,-0.1948626286203973
1758301038660234500,11.021234375,0.7486344473920762,-9.771403330051898,-0.36001053898930546
1758301038670208500,11.03120849609375,0.6335417950518429,-9.771664611336588,-0.5325380199491977
1758301038680183300,11.041183349609375,0.5310291862888261,-9.767084882330893,-0.7017593720357864
1758301038690157300,11.0511572265625,0.4557378349937498,-9.760182847857475,-0.8375739098872989
1758301038700131300,11.06113134765625,0.4114621284808963,-9.75532196382284,-0.9136717187270521
1758301038710106400,11.0711064453125,0.41973081166502085,-9.754589557895065,-0.9177131030723452
1758301038720080400,11.081080322265626,0.5001626311210915,-9.758023623996973,-0.8373619476370513
1758301038730054400,11.091054443359376,0.5319110836898908,-9.768413500586151,-0.68229851943627
1758301038740028400,11.1010283203125,0.3540280670462176,-9.788751355215906,-0.47473888806179165
1758301038750003500,11.11100341796875,-0.025953271942294666,-9.803257434952258,-0.2566217136473395
1758301038759977200,11.120977294921875,-0.38090347021855414,-9.797718505525589,-0.17327586990809066
1758301038769951200,11.130951171875,-0.49356330592129377,-9.790159468448161,-0.2820733676268719
1758301038779925200,11.14092529296875,-0.42015539375264194,-9.789385561466217,-0.4021924150280654
1758301038789900500,11.150900634765625,-0.3141255706489086,-9.791242002987861,-0.4509139219686389
1758301038799874600,11.16087451171875,-0.24114112632302567,-9.792612122297287,-0.46580757625047114
1758301038809848600,11.1708486328125,-0.19199752151286228,-9.793287245079874,-0.47441469760872423
1758301038819823600,11.18082373046875,-0.11153260350478812,-9.794531107661127,-0.47445064570493994
1758301038829797600,11.190797607421874,0.04577121490077116,-9.79564520638287,-0.4621946829829365
1758301038839771400,11.200771484375,0.2519383598703891,-9.794113759031891,-0.4269154624721035
1758301038849745400,11.210745361328126,0.4539851095749065,-9.7882586032629,-0.39278449868094173
1758301038859720400,11.220720458984376,0.6120066569289192,-9.779076348897814,-0.40681240297891197
1758301038869694500,11.230694580078126,0.7225312341686337,-9.768699331790208,-0.46994094972815365
1758301038879668500,11.24066845703125,0.8147098977807908,-9.756340785476565,-0.5660775206532329
1758301038889642500,11.250642578125,0.9229172475866972,-9.739668467617035,-0.676353785687685
1758301038899617500,11.260617431640625,1.056375504635647,-9.718856565734743,-0.7734799156393856
1758301038909591600,11.270591552734375,1.1994480507913976,-9.697110013350844,-0.8353263501562178
1758301038919565300,11.2805654296875,1.3329054310575126,-9.678684129822253,-0.846664175119996
1758301038929539300,11.290539306640625,1.434209065889567,-9.667525606948137,-0.8076928586255758
1758301038939514400,11.300514404296875,1.4851323206581175,-9.66621627791524,-0.7273596041731536
1758301038949488400,11.31048828125,1.4843644050255418,-9.674088618725538,-0.6156668234042822
1758301038959462400,11.32046240234375,1.444574977081269,-9.687166126963495,-0.49234468737915155
1758301038969437400,11.3304375,1.383012839398533,-9.701392805236578,-0.37501536202803254
1758301038979411500,11.340411376953124,1.3100897881373763,-9.714727503105998,-0.27948145143752917
1758301038989385500,11.350385498046874,1.2289581498488784,-9.72687971319258,-0.2187301004147157
1758301038999359500,11.360359375,1.1370015314895658,-9.738422266948222,-0.2018729092412628
1758301039009334300,11.370334228515626,1.0354803083840758,-9.749147659102082,-0.228705916310288
1758301039019308300,11.380308349609376,0.9317525882102549,-9.757983876508474,-0.2897813299220055
1758301039029282300,11.3902822265625,0.8327649021703749,-9.76423767620623,-0.36952034480832513
1758301039039256300,11.40025634765625,0.75053428966403,-9.76746540608108,-0.45136013136617836
1758301039049231600,11.410231689453125,0.6953625106055289,-9.767886261841655,-0.5246344802830368
1758301039059205600,11.42020556640625,0.6669049893409014,-9.766355399012564,-0.5864711605908349
1758301039069179600,11.4301796875,0.6571221387341618,-9.763528066632151,-0.6419553300667554
1758301039079153700,11.440153564453125,0.6655950027208775,-9.759103235927224,-0.6980534301899373
1758301039089128700,11.450128662109375,0.7104334576830268,-9.751208098763227,-0.7613267557047307
1758301039099102700,11.460102783203125,0.8001183317180722,-9.73825860081911,-0.8345698327004909
1758301039109076700,11.47007666015625,0.9127342917464673,-9.719639240545034,-0.9305519071836024
1758301039119052000,11.480052001953124,1.0171191606547683,-9.697596920084953,-1.045222826980427
1758301039129025800,11.49002587890625,1.057865085606277,-9.683907417428493,-1.1283759611591697
1758301039138999800,11.499999755859376,0.9495440462928265,-9.697655372273921,-1.1064451382495462
1758301039148973800,11.509973876953126,0.7709601148381828,-9.723224113294481,-1.017308984138444
1758301039158948900,11.519948974609376,0.6848305951971561,-9.735290983185171,-0.9620164282444864
1758301039168923000,11.5299228515625,0.7363763657782226,-9.733443309491872,-0.9424744001675397
1758301039178897000,11.53989697265625,0.8158257500682026,-9.728186119616032,-0.9312507031027227
1758301039188871000,11.549870849609375,0.8321854948472232,-9.730245974755286,-0.8945270194046199
1758301039198846000,11.559845947265625,0.7834844461727887,-9.741680976483226,-0.8100536694727838
1758301039208820000,11.569820068359375,0.7111060962475836,-9.7562197894454,-0.69345813828893
1758301039218794000,11.5797939453125,0.6455794388480484,-9.76925696567297,-0.5614437233727425
1758301039228768800,11.589768798828125,0.5936482126133517,-9.779768422815204,-0.4172602933656424
1758301039238742800,11.59974267578125,0.5475143840784207,-9.787797415491937,-0.26392812767056745
1758301039248716800,11.609716796875,0.5076458995485678,-9.792825472787023,-0.11512540383236482
1758301039258690800,11.61969091796875,0.48967057279907167,-9.794411280673742,0.009656961488036905
1758301039268665900,11.629665771484374,0.5114291078817099,-9.792786309820412,0.10072892195032909
1758301039278639900,11.639639892578124,0.5798587932463735,-9.78814871314764,0.16209283364722504
1758301039288614000,11.64961376953125,0.6908252325020731,-9.780230779629946,0.2005223531488329
1758301039298588000,11.659587890625,0.8230913571570068,-9.769624629941582,0.21752741009406745
1758301039308562700,11.669562744140626,0.9396522554188966,-9.759623460409045,0.19285556311430407
1758301039318536700,11.67953662109375,0.9973206005334854,-9.755242468845843,0.10468274674317798
1758301039328510700,11.6895107421875,0.969172656674683,-9.758552616307139,-0.04186920706012752
1758301039338484700,11.699484619140625,0.8590698485109954,-9.766463535562156,-0.22041885721925644
1758301039348459800,11.709459716796875,0.6908958865854888,-9.774119603273272,-0.3995427773021161
1758301039358433800,11.719433837890625,0.49440311774630097,-9.77792893242836,-0.5639635241739451
1758301039368407800,11.72940771484375,0.3096127328669652,-9.775804779881238,-0.712872375267744
1758301039378382800,11.7393828125,0.17154334702705964,-9.769052383011578,-0.840581128879264
1758301039388356900,11.74935693359375,0.10784622487593441,-9.762256731522083,-0.9257924376968294
1758301039398331000,11.759330810546874,0.13003550692549906,-9.761291101360321,-0.9330894628372043
1758301039408305000,11.769304931640624,0.15459104318236933,-9.769164611214398,-0.8425519174955785
1758301039418280000,11.779280029296874,0.01606438541150419,-9.783003751474618,-0.6803986771643161
1758301039428254000,11.78925390625,-0.31538817446324974,-9.787201203164457,-0.5306730663275346
1758301039438228000,11.79922802734375,-0.6090925230478867,-9.775256498348712,-0.49369431188981977
1758301039448202000,11.809201904296875,-0.7030108334016054,-9.766592714899778,-0.5383454275863245
1758301039458176800,11.8191767578125,-0.6598562398731708,-9.766972069606185,-0.5841398680990562
1758301039468150800,11.82915087890625,-0.5814885864052921,-9.769975343075394,-0.6162842246502638
1758301039478124800,11.839124755859375,-0.49514641039427365,-9.774090961700677,-0.6263708805091679
1758301039488098800,11.849098876953125,-0.4037401559267193,-9.778716867935657,-0.6197412332363427
1758301039498073900,11.859073974609375,-0.30019771092562003,-9.783363816958666,-0.6050265887832269
1758301039508048000,11.8690478515625,-0.151167498474475,-9.788637957969307,-0.574551224890165
1758301039518022000,11.87902197265625,0.049145070681464856,-9.793110719469189,-0.5127899479061365
1758301039527996700,11.88899658203125,0.2638611268489621,-9.793322316393256,-0.4377195458853617
1758301039537970700,11.898970703125,0.44478356598746027,-9.788301273360847,-0.4021403925798833
1758301039547944700,11.90894482421875,0.5578943603280931,-9.78100468661189,-0.43712238370981066
1758301039557918700,11.918918701171876,0.6109888581885025,-9.77371336055994,-0.5211553694630041
1758301039567893800,11.928893798828126,0.6516087821401655,-9.764656193879246,-0.6303132614593953
1758301039577867800,11.93886767578125,0.726533163286373,-9.750821145272255,-0.7510197350934147
1758301039587841800,11.948841796875,0.847122659477219,-9.732233349180222,-0.8581541949708015
1758301039597815800,11.95881591796875,0.9943133815415203,-9.711974405005574,-0.926989027070254
1758301039607790600,11.96879052734375,1.1401586803462356,-9.69461936557889,-0.9406162781454622
1758301039617764600,11.9787646484375,1.2592561113484204,-9.683842535498737,-0.8988049889847636
1758301039627738600,11.988738525390625,1.3337807525873184,-9.68145125644803,-0.812968753201887
1758301039637714000,11.9987138671875,1.3663346763201056,-9.68639280450344,-0.6908778394721448
1758301039647688000,12.00868798828125,1.3568465708762407,-9.696386375251413,-0.5562863406095654
1758301039657662000,12.018661865234375,1.3105084519408643,-9.70901789328754,-0.43353495367709544
1758301039667636000,12.028635986328124,1.2365927363805471,-9.722440269440412,-0.33965861930157987
1758301039677610800,12.03861083984375,1.143938198884949,-9.73546400166452,-0.28726366627896205
1758301039687584800,12.048584716796874,1.0360440797466783,-9.747782215967774,-0.27883862348934635
1758301039697558800,12.058558837890626,0.9161547677144408,-9.758757783490418,-0.31254769034031776
1758301039707532800,12.06853271484375,0.7900521341253072,-9.767182497486472,-0.38513237649258225
1758301039717507800,12.0785078125,0.6654474840089678,-9.772173145380616,-0.48186271205972875
1758301039727481900,12.08848193359375,0.5553912914659828,-9.773784087708592,-0.5788492508776486
1758301039737455900,12.098455810546875,0.47737617776282126,-9.77210767892897,-0.6696186322137713
1758301039747430000,12.108429931640625,0.4472316897919401,-9.766903680545092,-0.7602307040963322
1758301039757405000,12.118405029296875,0.4772782338136807,-9.758387196612357,-0.8464455639332532
1758301039767378700,12.128378662109375,0.5725147140938789,-9.746044432389736,-0.9258579041484742
1758301039777352700,12.138352783203125,0.7047397760860622,-9.729498371258378,-1.005270171298459
1758301039787327700,12.14832763671875,0.8250975824128836,-9.710510762193799,-1.0934238171782344
1758301039797301800,12.1583017578125,0.8941860970124602,-9.694125444582104,-1.1809982018653302
1758301039807275800,12.16827587890625,0.9076186292331665,-9.685416068425774,-1.2407047017440198
1758301039817249800,12.178249755859374,0.8604010971147567,-9.690269938197732,-1.236435646122694
1758301039827224800,12.188224853515624,0.7791594225805253,-9.699740946376323,-1.2158692434340714
1758301039837198800,12.19819873046875,0.74216042907238,-9.703037065312266,-1.2127046419233083
1758301039847172900,12.2081728515625,0.7765205985095351,-9.701726567235589,-1.2016236412648111
1758301039857146600,12.218146728515626,0.8368634965956211,-9.70209890767932,-1.1572900670848787
1758301039867121700,12.22812158203125,0.8505595020581036,-9.709989368668198,-1.0784429595369844
1758301039877095700,12.238095703125,0.8254580132231116,-9.724617028957605,-0.9596076866023242
1758301039887069700,12.248069580078125,0.7793916969664394,-9.741527247226237,-0.8158429934639483
1758301039897043700,12.258043701171875,0.7284064098123461,-9.756997203558683,-0.6639554188203066
1758301039907019000,12.26801904296875,0.6780675308030099,-9.769978265684843,-0.5080972235126421
1758301039916993000,12.277992919921875,0.6219422504119575,-9.780863232314585,-0.3439425071658566
1758301039926966800,12.287966796875,0.5585900875072926,-9.78917338002026,-0.17454510439261792
1758301039936941800,12.29794189453125,0.496057314694114,-9.794092131721973,-0.009936474832450038
1758301039946915800,12.307915771484375,0.4540502472329884,-9.79519629357159,0.13551768292994237
1758301039956889900,12.317889892578124,0.45438521480839694,-9.792872234538198,0.2521342843012884
1758301039966864000,12.32786376953125,0.5083950739480555,-9.787864635509251,0.3310939488455653
1758301039976839000,12.3378388671875,0.6145332162644713,-9.780362297055124,0.3704529494833201
1758301039986813000,12.34781298828125,0.7487175225656479,-9.77089538052976,0.37339484815411267
1758301039996787000,12.357786865234376,0.8639682150118052,-9.762795076182485,0.3343346112672239
1758301040006761000,12.367760986328125,0.9099063017789274,-9.761338447633385,0.24230160320345312
1758301040016735700,12.37773583984375,0.8660719092927872,-9.767775787204503,0.1041268846923951
1758301040026709800,12.387709716796875,0.7459178819097578,-9.778073893857002,-0.05698799360103439
1758301040036683800,12.397683837890625,0.5796854094408452,-9.787021170422435,-0.22039635312650352
1758301040046657800,12.40765771484375,0.40018830866403876,-9.79099942640364,-0.3828592073962092
1758301040056632800,12.4176328125,0.24046677072541786,-9.788588858130574,-0.5441210883783176
1758301040066607400,12.427607421875,0.1254518323970493,-9.781835876739024,-0.6858084272533654
1758301040076581000,12.4375810546875,0.061494757835217746,-9.775525962939858,-0.7782713146343827
1758301040086556200,12.44755615234375,0.06475749965794383,-9.774362764379381,-0.7924727123357355
1758301040096530200,12.4575302734375,0.08949111416176893,-9.780956755816936,-0.7037471117869019
1758301040106504200,12.467504150390624,-0.04927108081446495,-9.79348013730347,-0.5056844632824883
1758301040116478200,12.477478271484374,-0.4412041365981102,-9.792552501064538,-0.28570514825796706
1758301040126453200,12.487453369140624,-0.8267582091014832,-9.769698864221573,-0.19953210000246763
1758301040136427300,12.49742724609375,-0.9376176808513701,-9.758068632182479,-0.26712177261272446
1758301040146401300,12.5074013671875,-0.8467015114556997,-9.763407655122876,-0.35968503336198626
1758301040156375300,12.517375244140625,-0.6937468190371989,-9.773820328065753,-0.40193679629918183
1758301040166350000,12.52735009765625,-0.5592353996735066,-9.783096105933188,-0.38559524476397783
1758301040176324000,12.537323974609375,-0.46301809166241437,-9.789542797854542,-0.34763730656318365
1758301040186298000,12.547298095703125,-0.37687059797327965,-9.794528769573569,-0.30915110670458523
1758301040196273400,12.5572734375,-0.23109352383287624,-9.800430102571845,-0.26187240071715784
1758301040206247400,12.567247314453125,-0.012088236905704252,-9.804756149077415,-0.19239970910558477
1758301040216221400,12.577221435546875,0.2279693456640467,-9.803135854399203,-0.13022689217859879
1758301040226195500,12.587195556640625,0.4219054157577455,-9.7967259873569,-0.12864260039553047
1758301040236170200,12.597170166015625,0.5304303070802241,-9.790207399243116,-0.20212661000769583
1758301040246144300,12.607144287109374,0.5815372478526085,-9.784058813485503,-0.3231097086260095
1758301040256118300,12.6171181640625,0.6380960242900997,-9.774871882945298,-0.4637895874915644
1758301040266092300,12.62709228515625,0.7508788653180003,-9.759531105950474,-0.5984441781856119
1758301040276067300,12.6370673828125,0.9180277950447052,-9.738338680317998,-0.7016979241721332
1758301040286041300,12.647041259765626,1.1000726075429468,-9.715481536343693,-0.75473751350753
1758301040296015400,12.657015380859375,1.2481930116727948,-9.697461311006546,-0.7560648165885359
1758301040305989400,12.6669892578125,1.3411169406943022,-9.68874608963132,-0.7070846587117761
1758301040315964200,12.676964111328125,1.3845597765795885,-9.689516489481925,-0.6055258800748735
1758301040325938200,12.686938232421875,1.3831956486195325,-9.69769336619675,-0.4603489820510149
1758301040335912200,12.696912109375,1.3469666896358132,-9.709106740614772,-0.2988366151728667
1758301040345887200,12.70688720703125,1.2941082290209829,-9.719700030821562,-0.1519188739642035
1758301040355861200,12.716861328125,1.231268618748337,-9.72889748275578,-0.05380063226919155
