time,seconds_elapsed,z,y,x
1758301027665009000,0.0260087890625,-0.5767294764518738,-0.19517654180526733,-0.05338006094098091
1758301027674983000,0.03598291015625,-0.4471488893032074,-0.13179579377174377,-0.08818723261356354
1758301027684956700,0.045956787109375,-0.2696819603443146,0.11112818866968155,-0.13254909217357635
1758301027694930700,0.0559306640625,-0.23366953432559967,0.4074097275733948,-0.19884774088859558
1758301027704904700,0.06590478515625,-0.3060465455055237,0.5960819125175476,-0.2324855923652649
1758301027714878700,0.075878662109375,-0.3669269382953644,0.6279921531677246,-0.1927025318145752
1758301027724852700,0.085852783203125,-0.3926738500595093,0.5388010144233704,-0.05127802863717079
1758301027734826800,0.09582666015625,-0.33414530754089355,0.3523760437965393,0.14182794094085693
1758301027744800800,0.10580078125,-0.08306007832288742,0.4158516824245453,0.2968824803829193
1758301027754774800,0.11577490234375,0.02782685123383999,0.7039147019386292,0.5638065934181213
1758301027764748800,0.125748779296875,0.03475053608417511,0.6682142615318298,0.7922093868255615
1758301027774722800,0.135722900390625,-0.09455490112304688,-0.09798654913902283,0.6494162678718567
1758301027784696800,0.14569677734375,-0.06228005141019821,-0.7469598054885864,0.4507386386394501
1758301027794670800,0.1556708984375,0.0646628886461258,-0.9520900845527649,0.3068976104259491
1758301027804644900,0.165644775390625,0.16633199155330658,-1.0263776779174805,0.22130893170833588
1758301027814619000,0.175618896484375,0.18327869474887848,-0.9309865832328796,0.19634848833084106
1758301027824593000,0.185593017578125,0.1757161170244217,-0.5340264439582825,0.22869549691677094
1758301027834567000,0.19556689453125,0.18584290146827698,-0.11749447882175446,0.22964321076869965
1758301027844541000,0.205541015625,0.17626804113388062,0.15426433086395264,0.19659844040870667
1758301027854515000,0.215514892578125,0.0906507596373558,0.25813156366348267,0.18153518438339233
1758301027864489000,0.225489013671875,0.0077878329902887344,0.3131687045097351,0.18506918847560883
1758301027874462700,0.235462646484375,0.005116723012179136,0.5066267848014832,0.17169620096683502
1758301027884435700,0.245435791015625,0.027094991877675056,0.8198661804199219,0.18619871139526367
1758301027894409700,0.25540966796875,0.029831435531377792,1.1450142860412598,0.20323942601680756
1758301027904383700,0.2653837890625,-0.02649548649787903,1.2612422704696655,0.19711947441101074
1758301027914357800,0.275357666015625,-0.118730328977108,1.1111735105514526,0.13688021898269653
1758301027924331800,0.285331787109375,-0.1837407499551773,0.6753724813461304,0.020235085859894753
1758301027934305800,0.295305908203125,-0.17485158145427704,0.14259542524814606,-0.09660926461219788
1758301027944279600,0.305279541015625,-0.13724082708358765,-0.2892225384712219,-0.1396869570016861
1758301027954253600,0.315253662109375,-0.1194666400551796,-0.5042330026626587,-0.04690929874777794
1758301027964227600,0.3252275390625,-0.16679313778877258,-0.5450541973114014,0.14017243683338165
1758301027974201600,0.33520166015625,-0.2663191258907318,-0.5229252576828003,0.35956311225891113
1758301027984175600,0.345175537109375,-0.3651362359523773,-0.4264383614063263,0.5761662721633911
1758301027994149600,0.355149658203125,-0.4385101795196533,-0.2680099308490753,0.7084540128707886
1758301028004123600,0.36512353515625,-0.4960365891456604,-0.11682602018117905,0.7024831771850586
1758301028014097700,0.37509765625,-0.5144051313400269,0.04404536634683609,0.5827076435089111
1758301028024071700,0.38507177734375,-0.46809864044189453,0.17069758474826813,0.39487597346305847
1758301028034045700,0.395045654296875,-0.3733808696269989,0.2323853224515915,0.20005811750888824
1758301028044019700,0.405019775390625,-0.2813657522201538,0.19958876073360443,0.019671831279993057
1758301028053993500,0.414993408203125,-0.21758556365966797,0.07303224503993988,-0.18028976023197174
1758301028063967500,0.424967529296875,-0.1651412695646286,-0.13392414152622223,-0.4138508439064026
1758301028073941500,0.43494140625,-0.18961596488952637,-0.3573762774467468,-0.6418356895446777
1758301028083915500,0.44491552734375,-0.2877848446369171,-0.5463269948959351,-0.7849534749984741
1758301028093889500,0.4548896484375,-0.3085828721523285,-0.5326814651489258,-0.748007595539093
1758301028103863300,0.46486328125,-0.1602775603532791,-0.29779043793678284,-0.4227168560028076
1758301028113837300,0.47483740234375,0.00890241377055645,0.05241737887263298,-0.011664612218737602
1758301028123811300,0.484811279296875,0.08536070585250854,0.4396652281284332,0.3400023579597473
1758301028133785300,0.494785400390625,-0.14030900597572327,0.3482697010040283,0.6545952558517456
1758301028143759400,0.50475927734375,-0.5355428457260132,-0.3331088423728943,0.8014302253723145
1758301028153732400,0.514732421875,-0.782499372959137,-1.185164213180542,1.0309314727783203
1758301028163706400,0.524706298828125,-0.8939363956451416,-1.630327582359314,1.3412028551101685
1758301028173680400,0.534680419921875,-0.7848149538040161,-1.3581981658935547,1.6706703901290894
1758301028183654400,0.544654296875,-0.515101432800293,-0.585220217704773,1.8240289688110352
1758301028193628400,0.55462841796875,-0.21959775686264038,0.2450818568468094,1.6231329441070557
1758301028203602400,0.5646025390625,-0.04204695299267769,1.5572311878204346,1.033133625984192
1758301028213576200,0.574576171875,0.21913599967956543,2.9200551509857178,0.3867940604686737
1758301028223550200,0.58455029296875,0.3747332990169525,3.741936445236206,-0.30233827233314514
1758301028233524200,0.594524169921875,0.4343535602092743,3.8912670612335205,-0.813493013381958
1758301028243498200,0.604498291015625,0.2612534165382385,3.6174848079681396,-1.1216918230056763
1758301028253472300,0.61447216796875,0.05010312795639038,3.1201720237731934,-1.061880111694336
1758301028263446300,0.6244462890625,-0.3655098080635071,2.2905969619750977,-0.8206529021263123
1758301028273420300,0.634420166015625,-0.8117588758468628,1.1699707508087158,-0.4712638854980469
1758301028283394300,0.644394287109375,-0.8764345049858093,0.2647911310195923,-0.016206081956624985
1758301028293368300,0.654368408203125,-0.5516889095306396,-0.4481549561023712,0.3699730336666107
1758301028303342300,0.66434228515625,0.07599685341119766,-1.1088249683380127,0.509114682674408
1758301028313316400,0.67431640625,0.5015431046485901,-1.4605213403701782,0.42560476064682007
1758301028323290400,0.684290283203125,0.738622784614563,-1.5192309617996216,0.3364676833152771
1758301028333264400,0.694264404296875,0.5989158153533936,-1.2802313566207886,0.38166168332099915
1758301028343238400,0.70423828125,0.19724346697330475,-0.8625130653381348,0.4243047535419464
1758301028353212400,0.71421240234375,-0.13185082376003265,-0.2773475646972656,0.37512704730033875
1758301028363186400,0.7241865234375,-0.22548730671405792,0.15093053877353668,0.13388486206531525
1758301028373160400,0.734160400390625,-0.00560491718351841,0.51763916015625,-0.3643779754638672
1758301028383133400,0.744133544921875,0.4633207619190216,-0.648467481136322,-0.5333733558654785
1758301028393107500,0.754107421875,0.7834558486938477,-2.6560423374176025,-0.4221184253692627
1758301028403081500,0.76408154296875,1.3660798072814941,-3.881791830062866,-0.5472803115844727
1758301028413055500,0.774055419921875,0.8106385469436646,-3.2927656173706055,-0.5370764136314392
1758301028423029500,0.784029541015625,-1.0403401851654053,0.9044710993766785,-0.07102353125810623
1758301028433003500,0.79400341796875,-0.5616645216941833,1.5848395824432373,-0.08218052983283997
1758301028442977500,0.8039775390625,-0.23568138480186462,1.0151140689849854,0.47351786494255066
1758301028452951600,0.81395166015625,-0.4396377503871918,0.33187705278396606,0.9313629269599915
1758301028462925300,0.82392529296875,-0.5396897792816162,-0.27421605587005615,1.108480453491211
1758301028472899300,0.8338994140625,-0.4795042872428894,-0.5779708027839661,1.0103448629379272
1758301028482873300,0.843873291015625,-0.3260161876678467,-0.8141242265701294,0.8543375134468079
1758301028492847400,0.853847412109375,-0.20268088579177856,-0.8545575737953186,0.7696809768676758
1758301028502821400,0.8638212890625,0.008318709209561348,-0.9285727143287659,0.8064424395561218
1758301028512795400,0.87379541015625,0.2799489498138428,-1.1973642110824585,0.844513475894928
1758301028522769400,0.883769287109375,0.5208023190498352,-1.777047872543335,0.8364941477775574
1758301028532743400,0.893743408203125,0.530754566192627,-3.126634359359741,0.6179929375648499
1758301028542717400,0.903717529296875,0.8101760745048523,-4.944311141967773,0.39767253398895264
1758301028552691500,0.91369140625,1.3232088088989258,-6.32846212387085,0.4956206977367401
1758301028562665500,0.92366552734375,1.0582705736160278,-6.293301582336426,0.9627743363380432
1758301028572639500,0.933639404296875,0.26856285333633423,-5.274652481079102,1.5712288618087769
1758301028582612200,0.9436123046875,-0.44594117999076843,-4.672722816467285,2.0272092819213867
1758301028592586200,0.953586181640625,-0.5735380053520203,-4.791978359222412,2.2354133129119873
1758301028602560300,0.963560302734375,-0.42508888244628906,-4.647375583648682,2.3875670433044434
1758301028612534300,0.9735341796875,-0.06835686415433884,-3.3929784297943115,1.6159894466400146
1758301028622508300,0.98350830078125,0.2662871778011322,-2.9212241172790527,0.7072924971580505
1758301028632482300,0.993482421875,0.743750810623169,-2.603327989578247,0.1174672320485115
1758301028642456300,1.003456298828125,1.2902072668075562,-3.630286693572998,-0.35127201676368713
1758301028652430300,1.013430419921875,1.7448906898498535,-5.078347682952881,-0.5771947503089905
1758301028662404400,1.023404296875,2.364426374435425,-6.383873462677002,-0.2163393646478653
1758301028672378400,1.03337841796875,3.114901304244995,-6.778069019317627,0.709719717502594
1758301028682352400,1.043352294921875,3.9097468852996826,-6.462859630584717,1.676041603088379
1758301028692326400,1.053326416015625,4.478060722351074,-5.9878363609313965,2.434109926223755
1758301028702300400,1.063300537109375,4.755602836608887,-5.63691520690918,2.7897160053253174
1758301028712274400,1.0732744140625,5.001462936401367,-5.501952171325684,2.779294967651367
1758301028722248200,1.083248291015625,5.479656219482422,-5.080612659454346,2.463200092315674
1758301028732222200,1.09322216796875,6.059408664703369,-4.800662994384766,1.9448314905166626
1758301028742196200,1.1031962890625,6.6729326248168945,-4.742860794067383,1.4380377531051636
1758301028752170200,1.113170166015625,7.4263596534729,-4.970746040344238,0.8865989446640015
1758301028762144300,1.123144287109375,8.387544631958008,-5.310818672180176,0.5056787729263306
1758301028772118300,1.1331181640625,9.50352954864502,-5.082348346710205,0.44482165575027466
1758301028782091300,1.14309130859375,10.372214317321777,-3.892733573913574,0.3552781939506531
1758301028792065300,1.153065185546875,10.788688659667969,-2.60014009475708,0.051947079598903656
1758301028802039300,1.163039306640625,10.680359840393066,-1.6886448860168457,-0.42900410294532776
1758301028812013300,1.173013427734375,9.991195678710938,-1.6842608451843262,-0.8814958333969116
1758301028821987300,1.1829873046875,9.236921310424805,-2.469045877456665,-1.1821136474609375
1758301028831961300,1.19296142578125,8.784439086914062,-3.3121886253356934,-0.5494044423103333
1758301028841935400,1.202935302734375,8.62459945678711,-3.485369920730591,0.7065657377243042
1758301028851909400,1.212909423828125,8.482155799865723,-3.46311616897583,2.0450754165649414
1758301028861883400,1.22288330078125,8.386862754821777,-3.065347671508789,3.399430274963379
1758301028871857400,1.232857421875,8.008936882019043,-2.5479202270507812,4.537456512451172
1758301028881831400,1.24283154296875,7.212066650390625,-2.017103672027588,5.468801498413086
1758301028891805400,1.252805419921875,6.027563571929932,-1.6746442317962646,6.084990978240967
1758301028901779500,1.262779541015625,4.633138656616211,-1.588623285293579,6.4144182205200195
1758301028911753500,1.27275341796875,3.284524440765381,-0.9625289440155029,6.572577476501465
1758301028921727500,1.2827275390625,1.961612582206726,0.4524894952774048,6.304697513580322
1758301028931701500,1.292701416015625,0.7056081295013428,2.0769293308258057,5.4385809898376465
1758301028941675500,1.302675537109375,-0.3057733476161957,3.5328598022460938,4.078019618988037
1758301028951649500,1.3126494140625,-0.9485782384872437,4.238081455230713,2.735806465148926
1758301028961623600,1.32262353515625,-1.2454309463500977,4.466603755950928,1.4024968147277832
1758301028971597300,1.332597412109375,-1.211126685142517,3.712646484375,0.42885512113571167
1758301028981571300,1.3425712890625,-1.4188798666000366,3.2724671363830566,0.31784629821777344
1758301028991545300,1.35254541015625,-1.6778141260147095,2.7887022495269775,0.07836122065782547
1758301029001519400,1.362519287109375,-2.2171082496643066,2.1173696517944336,0.23665019869804382
1758301029011492400,1.372492431640625,-2.258209705352783,2.7350351810455322,-0.2937006652355194
1758301029021466400,1.38246630859375,-1.4086025953292847,6.20939826965332,-4.077491283416748
1758301029031440400,1.3924404296875,-0.4771118760108948,8.113130569458008,-7.534852981567383
1758301029041414100,1.4024140625,-0.23269306123256683,9.133611679077148,-8.89779281616211
1758301029051388200,1.41238818359375,-0.33543145656585693,8.446106910705566,-8.442660331726074
1758301029061362200,1.422362060546875,-0.5313671827316284,7.011294364929199,-7.4946699142456055
1758301029071336200,1.432336181640625,-1.0049957036972046,4.664684772491455,-6.825740814208984
1758301029081310200,1.442310302734375,-1.5272862911224365,2.162335157394409,-4.680476665496826
1758301029091284200,1.4522841796875,-2.0955049991607666,-0.3885897994041443,-1.1067720651626587
1758301029101258200,1.46225830078125,-2.534696102142334,-2.173124313354492,2.6819167137145996
1758301029111232300,1.472232177734375,-3.081977128982544,-3.0597383975982666,6.391663074493408
1758301029121206300,1.482206298828125,-3.57124662399292,-3.2079925537109375,9.164525032043457
1758301029131180300,1.49218017578125,-3.9970126152038574,-3.3312644958496094,9.319807052612305
1758301029141154300,1.502154296875,-3.809907913208008,-4.148255348205566,8.087080001831055
1758301029151128300,1.51212841796875,-3.021153688430786,-3.986513376235962,6.265814304351807
1758301029161102300,1.522102294921875,-1.9279791116714478,-2.636721134185791,4.183104038238525
1758301029171076400,1.532076416015625,-1.1305010318756104,-0.5332450270652771,1.9719346761703491
1758301029181050400,1.54205029296875,-0.7836533188819885,1.3758244514465332,0.11403414607048035
1758301029191024400,1.5520244140625,-0.7895240783691406,2.4650204181671143,-0.9775370359420776
1758301029200998400,1.561998291015625,-1.1704181432724,2.2029318809509277,-1.3400052785873413
1758301029210972400,1.571972412109375,-1.8355544805526733,0.9898548126220703,-1.0742039680480957
1758301029220946400,1.581946533203125,-2.559302806854248,-0.22587236762046814,-0.345171183347702
1758301029230920200,1.591920166015625,-3.095545530319214,-1.114776849746704,0.42638763785362244
1758301029240894200,1.601894287109375,-3.418257236480713,-1.7387709617614746,0.9698876738548279
1758301029250868200,1.6118681640625,-3.5800344944000244,-2.080467700958252,1.2295976877212524
1758301029260842200,1.62184228515625,-3.5806660652160645,-2.1376986503601074,1.0709182024002075
1758301029270815500,1.6318154296875,-3.425828456878662,-1.9545471668243408,0.6960111856460571
1758301029280789200,1.641789306640625,-3.3753907680511475,-1.7538337707519531,0.3016910254955292
1758301029290763300,1.65176318359375,-2.336390495300293,-2.854245185852051,1.4323641061782837
1758301029300737300,1.6617373046875,-2.2722740173339844,-3.1478397846221924,1.8678261041641235
1758301029310711300,1.671711181640625,-2.4637444019317627,-3.311880588531494,1.64070463180542
1758301029320685300,1.681685302734375,-2.3328042030334473,-2.851647138595581,1.0077424049377441
1758301029330659300,1.691659423828125,-1.677856683731079,-2.3780131340026855,0.45002537965774536
1758301029340633300,1.70163330078125,-0.9494041800498962,-1.9735482931137085,0.12267947196960449
1758301029350607400,1.711607421875,-0.37805184721946716,-1.634084939956665,0.0023852307349443436
1758301029360581400,1.721581298828125,-0.06442734599113464,-1.1507850885391235,0.026576587930321693
1758301029370555400,1.731555419921875,0.07734353840351105,-0.8886223435401917,0.17745593190193176
1758301029380529400,1.741529296875,0.11823238432407379,-1.1334446668624878,0.3876693546772003
1758301029390503400,1.75150341796875,0.20326435565948486,-1.5667626857757568,0.6010410189628601
1758301029400477400,1.7614775390625,0.41199707984924316,-1.6927062273025513,0.7916881442070007
1758301029410451500,1.771451416015625,0.6953054666519165,-1.5530190467834473,0.8165574073791504
1758301029420425500,1.781425537109375,0.9813231229782104,-1.3147718906402588,0.6776048541069031
1758301029430399500,1.7913994140625,1.3292897939682007,-1.0052943229675293,0.5931195616722107
1758301029440373500,1.80137353515625,1.6018937826156616,-0.842594563961029,0.7034199237823486
1758301029450347500,1.811347412109375,1.5213569402694702,-1.0735160112380981,1.0333271026611328
1758301029460321500,1.821321533203125,1.1475272178649902,-1.3429371118545532,1.4309215545654297
1758301029470295600,1.831295654296875,0.7358905673027039,-1.5496344566345215,1.616441249847412
1758301029480269300,1.841269287109375,0.662432849407196,-1.6235166788101196,1.6689825057983398
1758301029490243000,1.8512431640625,0.9988367557525635,-1.24251127243042,1.520312786102295
1758301029500217000,1.861217041015625,1.5617424249649048,-0.37575116753578186,1.2089190483093262
1758301029510191000,1.871191162109375,2.009389877319336,1.0163336992263794,0.5415547490119934
1758301029520165000,1.8811650390625,2.1391379833221436,2.228593349456787,-0.3193504512310028
1758301029530139100,1.89113916015625,2.039801597595215,2.713040828704834,-0.9287959933280945
1758301029540113200,1.901113037109375,1.6461067199707031,1.409695029258728,-0.08536088466644287
1758301029550087200,1.911087158203125,1.1610137224197388,0.10517632961273193,0.051391202956438065
1758301029560061200,1.921061279296875,0.88319993019104,-0.26083070039749146,-0.005702445283532143
1758301029570035200,1.93103515625,0.7817220687866211,-0.159427210688591,0.01399453915655613
1758301029580009200,1.94100927734375,0.6633434891700745,-0.33275559544563293,0.08701682090759277
1758301029589983200,1.950983154296875,0.5911649465560913,-0.6714293360710144,0.19870765507221222
1758301029599957200,1.960957275390625,0.6617286205291748,-1.008604645729065,0.3746195435523987
1758301029609931300,1.97093115234375,0.6825599074363708,-1.265346884727478,0.5033000707626343
1758301029619905300,1.9809052734375,0.6396385431289673,-1.2103315591812134,0.5003594160079956
1758301029629879300,1.99087939453125,0.6038645505905151,-0.805228590965271,0.3659731149673462
1758301029639853300,2.000853271484375,0.5412845015525818,-0.16826863586902618,0.13880440592765808
1758301029649827300,2.010827392578125,0.44815531373023987,0.45761018991470337,-0.16400209069252014
1758301029659801300,2.02080126953125,0.4170229434967041,0.7777346968650818,-0.4204575717449188
1758301029669775400,2.030775390625,0.45521456003189087,0.8293557167053223,-0.596399188041687
1758301029679749400,2.040749267578125,0.6003725528717041,0.8860437870025635,-0.7498998045921326
1758301029689723100,2.05072314453125,0.7920384407043457,0.9726636409759521,-0.833879828453064
1758301029699697200,2.060697265625,0.9560540318489075,1.0666399002075195,-0.8567222952842712
1758301029709671200,2.070671142578125,1.050999402999878,1.0833021402359009,-0.8075832724571228
1758301029719645200,2.080645263671875,1.0721912384033203,0.983841598033905,-0.6938101053237915
1758301029729619200,2.090619140625,1.0555802583694458,0.8035246729850769,-0.5802378058433533
1758301029739593200,2.10059326171875,1.0257207155227661,0.4528539478778839,-0.6173508167266846
1758301029749567200,2.110567138671875,0.8932600617408752,-0.2415435016155243,-0.7058590650558472
1758301029759541200,2.120541259765625,0.642896294593811,-0.879229724407196,-0.710806667804718
1758301029769515300,2.130515380859375,0.3844200074672699,-1.008650302886963,-0.45254912972450256
1758301029779489300,2.1404892578125,0.3015083372592926,-0.8058170080184937,-0.345895916223526
1758301029789463300,2.15046337890625,0.5172974467277527,-0.01897195354104042,-0.6076168417930603
1758301029799437300,2.160437255859375,0.772586464881897,1.1046161651611328,-1.0631747245788574
1758301029809411300,2.170411376953125,0.9492493867874146,1.8855503797531128,-1.444260597229004
1758301029819385300,2.18038525390625,0.998520016670227,2.1682794094085693,-1.576435923576355
1758301029829359400,2.190359375,0.9496968984603882,1.9795403480529785,-1.4572839736938477
1758301029839333400,2.20033349609375,0.8297699689865112,1.452432632446289,-1.115803599357605
1758301029849307400,2.210307373046875,0.7507079839706421,1.260717511177063,-1.0322266817092896
1758301029859281400,2.220281494140625,0.6811126470565796,1.1672389507293701,-1.0370638370513916
1758301029869255400,2.23025537109375,0.5776410698890686,1.051522135734558,-1.0212900638580322
1758301029879229200,2.240229248046875,0.7186793684959412,1.0841543674468994,-0.7043282389640808
1758301029889203200,2.250203125,1.0577529668807983,1.0055655241012573,-0.23978839814662933
1758301029899177200,2.26017724609375,1.6663539409637451,1.098526954650879,0.0249194223433733
1758301029909151200,2.270151123046875,2.297899007797241,1.433789610862732,-0.0278224665671587
1758301029919125200,2.280125244140625,2.7759978771209717,1.6341516971588135,-0.34912461042404175
1758301029929099300,2.290099365234375,2.3460910320281982,1.030095100402832,-0.3708984851837158
1758301029939073300,2.3000732421875,1.2030267715454102,-0.4159846901893616,-0.10336185246706009
1758301029949047300,2.31004736328125,0.18374300003051758,-1.6639946699142456,0.1579737663269043
1758301029959021300,2.320021240234375,-0.4669724702835083,-1.9302390813827515,-0.13688716292381287
1758301029968995300,2.329995361328125,-0.5909005999565125,-0.6991152167320251,-0.7045084834098816
1758301029978969300,2.33996923828125,-0.35048267245292664,1.3297879695892334,-1.373359203338623
1758301029988943400,2.349943359375,0.06650541722774506,2.6053664684295654,-1.7102723121643066
1758301029998917400,2.35991748046875,0.4940679371356964,2.9461801052093506,-1.501571774482727
1758301030008891400,2.369891357421875,0.607186496257782,3.1060962677001953,-1.1745023727416992
1758301030018865400,2.379865478515625,0.7775055170059204,2.636418581008911,-1.0064119100570679
1758301030028839400,2.38983935546875,0.7887135744094849,1.7059463262557983,-0.7909619808197021
1758301030038813400,2.3998134765625,0.45457929372787476,0.6820335984230042,-0.7333506345748901
1758301030048787500,2.409787353515625,0.337164968252182,0.33020201325416565,-0.6556336879730225
1758301030058761500,2.419761474609375,0.5148095488548279,0.3116067349910736,-0.3705347776412964
1758301030068736800,2.42973681640625,0.9251335859298706,0.4820372462272644,-0.0928521603345871
1758301030078710800,2.439710693359375,1.1580331325531006,0.503132164478302,0.22522994875907898
1758301030088684800,2.449684814453125,1.1883363723754883,0.06854745000600815,0.5156152844429016
1758301030098658800,2.459658935546875,0.8472165465354919,-0.5393939018249512,0.4357728958129883
1758301030108632800,2.4696328125,0.3922845721244812,-1.052709937095642,0.277325838804245
1758301030118606800,2.47960693359375,0.13820354640483856,-1.1113471984863281,0.2104562669992447
1758301030128580600,2.48958056640625,0.14225618541240692,-0.7896859645843506,0.1655450016260147
1758301030138554600,2.4995546875,0.33247941732406616,-0.3826540410518646,0.2221110761165619
1758301030148528600,2.509528564453125,0.47997918725013733,-0.019473077729344368,0.3787491023540497
1758301030158502700,2.519502685546875,0.5642051100730896,0.30031636357307434,0.5734304785728455
1758301030168476700,2.5294765625,0.5903134942054749,0.41116151213645935,0.5823371410369873
1758301030178450700,2.53945068359375,0.6259196996688843,0.4922102987766266,0.5250996351242065
1758301030188424700,2.5494248046875,0.6853284239768982,0.6039895415306091,0.49512240290641785
1758301030198398500,2.5593984375,0.7609273195266724,0.6732948422431946,0.5089037418365479
1758301030208372500,2.56937255859375,0.7715713381767273,0.4603131115436554,0.6591217517852783
1758301030218346500,2.579346435546875,0.650182843208313,0.09836526960134506,0.8422976732254028
1758301030228320500,2.589320556640625,0.6100888848304749,0.05481596291065216,1.0794799327850342
1758301030238294500,2.59929443359375,0.9087653756141663,0.34372714161872864,1.3660938739776611
1758301030248268500,2.6092685546875,2.3458499908447266,1.6252970695495605,2.0368454456329346
1758301030258242600,2.61924267578125,5.17420768737793,2.84810733795166,1.742906928062439
1758301030268216600,2.629216552734375,4.4937968254089355,2.8098721504211426,-0.461635023355484
1758301030278190600,2.639190673828125,3.1531982421875,1.1067149639129639,-0.29057273268699646
1758301030288164600,2.64916455078125,0.9941943883895874,-0.6606044173240662,0.29553836584091187
1758301030298138600,2.659138671875,-0.867799699306488,-1.505763292312622,-0.0975322276353836
1758301030308112600,2.669112548828125,-1.174978494644165,-1.139670968055725,-0.5559765696525574
1758301030318086700,2.679086669921875,-0.6080881357192993,-0.3397243022918701,-0.6384344100952148
1758301030328060700,2.689060791015625,-0.18725505471229553,-0.07833325117826462,-0.5512058734893799
1758301030338034700,2.69903466796875,0.011811702512204647,-0.24200288951396942,-0.4249124228954315
1758301030348008700,2.7090087890625,0.09171479940414429,-0.150907963514328,-0.31377846002578735
1758301030357982700,2.718982666015625,0.10162308812141418,-0.0002782368683256209,-0.11504459381103516
1758301030367956700,2.728956787109375,0.09860626608133316,-0.3553229868412018,0.041675981134176254
1758301030377931500,2.738931640625,0.15847598016262054,-0.8974717259407043,0.21672607958316803
1758301030387905500,2.748905517578125,0.17069244384765625,-0.8954236507415771,0.44551873207092285
1758301030397879600,2.758879638671875,0.20820440351963043,-0.4372755289077759,0.7901134490966797
1758301030407853600,2.768853515625,0.1025821790099144,0.39175552129745483,0.8649977445602417
1758301030417827600,2.77882763671875,-0.16331635415554047,1.1222376823425293,0.6226498484611511
1758301030427801600,2.788801513671875,-0.5905346274375916,0.9923703074455261,0.36317774653434753
1758301030437775600,2.798775634765625,-1.260036587715149,0.3619835674762726,0.239165797829628
1758301030447749600,2.80874951171875,-1.6261500120162964,-0.027162155136466026,0.21424193680286407
1758301030457723600,2.8187236328125,-1.7305076122283936,-0.0427861250936985,0.4022943675518036
1758301030467697700,2.82869775390625,-1.7616112232208252,0.10234174132347107,0.35743990540504456
1758301030477671700,2.838671630859375,-1.6436803340911865,0.2485162615776062,0.16654372215270996
1758301030487645700,2.848645751953125,-1.4070894718170166,0.5677432417869568,-0.15085862576961517
1758301030497619700,2.85861962890625,-0.7319826483726501,1.4234614372253418,-0.23315270245075226
1758301030507593700,2.86859375,-0.26923123002052307,2.0829081535339355,-0.34335431456565857
1758301030517567700,2.878567626953125,-0.670504093170166,2.1007561683654785,-0.5396873950958252
1758301030527541800,2.888541748046875,-1.3589329719543457,1.4968856573104858,-0.6841307878494263
1758301030537515500,2.898515625,-1.9734864234924316,0.5233913660049438,-0.48952779173851013
1758301030547489500,2.908489501953125,-2.174858808517456,-0.5281931757926941,0.05080840364098549
1758301030557463600,2.918463623046875,-2.2577667236328125,-1.1416449546813965,0.6644742488861084
1758301030567437600,2.9284375,-2.2344765663146973,-1.236510992050171,1.1830027103424072
1758301030577411600,2.93841162109375,-2.0005874633789062,-0.6672786474227905,1.521708607673645
1758301030587385600,2.948385498046875,-1.4561474323272705,0.7351933717727661,1.5455474853515625
1758301030597360600,2.958360595703125,-0.4912525713443756,3.0288405418395996,1.5115822553634644
1758301030607334700,2.968334716796875,0.6680033802986145,5.509842872619629,1.7095555067062378
1758301030617308700,2.97830859375,1.872409462928772,7.112213611602783,1.9345899820327759
1758301030627282700,2.98828271484375,2.92909836769104,7.687938213348389,2.029221773147583
1758301030637256700,2.998256591796875,3.6448285579681396,7.061370372772217,1.902144193649292
1758301030647230700,3.008230712890625,3.956263542175293,4.480714321136475,1.6962968111038208
1758301030657204700,3.018204833984375,3.8185510635375977,0.18467101454734802,1.2066519260406494
1758301030667178800,3.0281787109375,3.53997802734375,-4.189477443695068,0.4657474160194397
1758301030677152500,3.038152587890625,3.6092352867126465,-6.5861616134643555,-0.38532695174217224
1758301030687126500,3.04812646484375,4.117798328399658,-6.617938995361328,-1.4287524223327637
1758301030697100500,3.0581005859375,4.710007190704346,-4.593804359436035,-2.871241331100464
1758301030707074600,3.068074462890625,5.0146355628967285,-1.4159903526306152,-4.249330043792725
1758301030717048600,3.078048583984375,4.874713897705078,1.2544057369232178,-5.046156406402588
1758301030727022600,3.088022705078125,4.358536720275879,2.317817449569702,-5.00588321685791
1758301030736996600,3.09799658203125,3.6963255405426025,1.7631521224975586,-4.210234642028809
1758301030746970600,3.107970703125,3.107154369354248,0.5154478549957275,-3.0592098236083984
1758301030756944600,3.117944580078125,2.6493449211120605,-0.7540869116783142,-2.2540948390960693
1758301030766918700,3.127918701171875,2.399948835372925,-1.7936336994171143,-2.0303564071655273
1758301030776892700,3.137892578125,2.286139965057373,-2.515183687210083,-2.260627031326294
1758301030786867700,3.14786767578125,2.2343554496765137,-3.093733310699463,-2.7129180431365967
1758301030796841700,3.157841796875,2.1487340927124023,-3.4495208263397217,-3.084373712539673
1758301030806815700,3.167815673828125,1.8216696977615356,-3.507331609725952,-3.2966277599334717
1758301030816789500,3.17778955078125,1.2888356447219849,-3.3239259719848633,-3.3838133811950684
1758301030826763500,3.187763427734375,0.5157549977302551,-2.6811249256134033,-3.3560755252838135
1758301030836737500,3.197737548828125,-0.1818283200263977,-1.9702153205871582,-3.357212543487549
1758301030846711600,3.207711669921875,-0.7249400019645691,-1.3023947477340698,-3.308015823364258
1758301030856685600,3.217685546875,-1.1752690076828003,-0.8589840531349182,-3.1356585025787354
1758301030866659600,3.22765966796875,-1.647760272026062,-0.7576810121536255,-2.797323703765869
1758301030876633600,3.237633544921875,-2.205549955368042,-0.9885286092758179,-2.37445068359375
1758301030886607600,3.247607666015625,-2.7559075355529785,-1.3559556007385254,-1.9957746267318726
1758301030896581600,3.25758154296875,-3.2089009284973145,-1.6192988157272339,-1.67690908908844
1758301030906555600,3.2675556640625,-3.5865933895111084,-1.6863539218902588,-1.4440985918045044
1758301030916529700,3.27752978515625,-3.844991683959961,-1.6345751285552979,-1.325540542602539
1758301030926503700,3.287503662109375,-3.990713119506836,-1.573592185974121,-1.3112354278564453
1758301030936477700,3.297477783203125,-4.101355075836182,-1.4202759265899658,-1.2299402952194214
1758301030946452700,3.30745263671875,-4.260264873504639,-1.2155283689498901,-0.9797326922416687
1758301030956426500,3.317426513671875,-4.480983257293701,-1.0293784141540527,-0.5165306925773621
1758301030966400500,3.327400390625,-4.7065043449401855,-0.9215186238288879,0.10250639915466309
1758301030976374500,3.33737451171875,-4.869058609008789,-0.8437023758888245,0.7582472562789917
1758301030986348500,3.3473486328125,-4.932091236114502,-0.7488519549369812,1.3534399271011353
1758301030996322600,3.357322509765625,-4.89284610748291,-0.7385284900665283,1.7442004680633545
1758301031006296600,3.367296630859375,-4.812843322753906,-0.8324525356292725,1.8954468965530396
1758301031016270600,3.3772705078125,-4.7113823890686035,-0.9492398500442505,1.932707667350769
1758301031026244600,3.38724462890625,-4.624814510345459,-1.0013420581817627,2.0046591758728027
1758301031036218600,3.397218505859375,-4.512452602386475,-1.0490124225616455,2.192167282104492
1758301031046192600,3.407192626953125,-4.374395370483398,-1.0832403898239136,2.5611703395843506
1758301031056167200,3.417167236328125,-4.209340572357178,-1.1574158668518066,3.0870680809020996
1758301031066141200,3.42714111328125,-4.017007827758789,-1.2331126928329468,3.6609671115875244
1758301031076115200,3.437115234375,-3.76753830909729,-1.2081577777862549,4.217807769775391
1758301031086089200,3.447089111328125,-3.5066049098968506,-1.0696731805801392,4.706284999847412
1758301031096063200,3.457063232421875,-3.2690322399139404,-0.9347984194755554,4.984943389892578
1758301031106038000,3.4670380859375,-3.0218770503997803,-0.8229309916496277,4.9677300453186035
1758301031116012000,3.477011962890625,-2.706056833267212,-0.7489097714424133,4.794855117797852
1758301031125986000,3.486986083984375,-2.356445074081421,-0.797590434551239,4.538267612457275
1758301031135960000,3.4969599609375,-1.9923063516616821,-0.8572207093238831,4.2947845458984375
1758301031145934000,3.50693408203125,-1.6181061267852783,-0.9359229803085327,4.18516206741333
1758301031155908000,3.516908203125,-1.257023572921753,-1.0626105070114136,4.278690338134766
1758301031165882000,3.526882080078125,-0.9840270280838013,-1.256724238395691,4.5208940505981445
1758301031175856000,3.536856201171875,-0.8492851853370667,-1.523306965827942,4.6524577140808105
1758301031185830100,3.546830078125,-0.7093042731285095,-1.7176581621170044,4.68390417098999
1758301031195804200,3.55680419921875,-0.49568524956703186,-1.6412904262542725,4.720541477203369
1758301031205778200,3.566778076171875,-0.21398699283599854,-1.3644468784332275,4.720282554626465
1758301031215752200,3.576752197265625,0.03597039356827736,-1.0327789783477783,4.6576080322265625
1758301031225726200,3.586726318359375,0.1930345743894577,-0.8626025319099426,4.615901947021484
1758301031235701000,3.596700927734375,0.30296027660369873,-0.9069913029670715,4.623890399932861
1758301031245675000,3.606675048828125,0.4427432119846344,-1.0392292737960815,4.59214448928833
1758301031255649000,3.61664892578125,0.6354503631591797,-1.0691906213760376,4.458892822265625
1758301031265623000,3.626623046875,2.4438676834106445,3.3279831409454346,-2.181013822555542
1758301031275597000,3.63659716796875,3.360384941101074,2.4097952842712402,-1.261202096939087
1758301031285571000,3.646571044921875,2.6540236473083496,0.0018919731955975294,0.5480601787567139
1758301031295545000,3.656545166015625,1.5602962970733643,-3.682403564453125,1.5921825170516968
1758301031305519000,3.66651904296875,0.8070776462554932,-6.053004741668701,1.9439009428024292
1758301031315493000,3.6764931640625,1.0440582036972046,-6.095630168914795,1.9266910552978516
1758301031325467100,3.686467041015625,1.8634051084518433,-4.179657936096191,1.4710893630981445
1758301031335441200,3.696441162109375,2.5378799438476562,-2.0118660926818848,0.585341215133667
1758301031345415200,3.706415283203125,2.7231035232543945,-0.507968544960022,-0.17721475660800934
1758301031355389200,3.71638916015625,2.4924840927124023,0.26824650168418884,-0.39000827074050903
1758301031365363200,3.72636328125,2.080139398574829,0.17385654151439667,0.20647016167640686
1758301031375338000,3.736337890625,1.4266541004180908,-1.06658935546875,1.62434720993042
1758301031385312000,3.74631201171875,0.9879123568534851,-0.7861579656600952,1.248908519744873
1758301031395286000,3.7562861328125,0.36997029185295105,-0.3277736306190491,1.717910885810852
1758301031405260000,3.766260009765625,-0.3625226616859436,-0.5789750814437866,2.16351056098938
1758301031415234000,3.776234130859375,-0.7996323704719543,-0.34997090697288513,2.238828420639038
1758301031425208000,3.7862080078125,-0.7543619871139526,0.5467357635498047,1.939300537109375
1758301031435182000,3.79618212890625,-0.457114577293396,1.487014889717102,1.6147501468658447
1758301031445156000,3.806156005859375,-0.2702389657497406,1.5896294116973877,1.3449180126190186
1758301031455130000,3.816130126953125,-0.21876618266105652,0.7694941759109497,0.963763952255249
1758301031465104100,3.826104248046875,-0.09416275471448898,0.008896895684301853,0.8392446041107178
1758301031475078100,3.836078125,0.19198031723499298,-0.9351028800010681,0.31678783893585205
1758301031485052200,3.84605224609375,0.6591166257858276,-1.3851438760757446,-0.992936372756958
1758301031495026200,3.856026123046875,1.199581265449524,-0.9585490226745605,-1.440819501876831
1758301031505001200,3.866001220703125,1.335662603378296,-0.8830222487449646,-1.5190644264221191
1758301031514975000,3.87597509765625,0.9777026772499084,-1.0650935173034668,-1.3953020572662354
1758301031524949000,3.885948974609375,0.45396408438682556,-0.8588799834251404,-1.125240683555603
1758301031534923000,3.895923095703125,0.05989854410290718,-0.08580059558153152,-1.0213686227798462
1758301031544897000,3.90589697265625,-0.24064761400222778,1.0419056415557861,-1.2670329809188843
1758301031554871000,3.91587109375,-0.46513956785202026,1.9476736783981323,-1.6388797760009766
1758301031564845000,3.925844970703125,-0.6427149176597595,2.186351776123047,-1.8532902002334595
1758301031574819000,3.935819091796875,-0.7165225744247437,1.64206063747406,-1.7525193691253662
1758301031584793000,3.94579296875,-0.708077609539032,0.5236513018608093,-1.3661280870437622
1758301031594767000,3.95576708984375,-0.6384183764457703,-0.8166963458061218,-0.8645562529563904
1758301031604741000,3.9657412109375,-0.5205531120300293,-2.0984370708465576,-0.2252749651670456
1758301031614715100,3.975715087890625,-0.3396264910697937,-2.6834702491760254,0.5568432807922363
1758301031625937200,3.986937255859375,-0.3443760871887207,-2.0944910049438477,1.5077519416809082
1758301031636534300,3.9975341796875,-0.060311585664749146,-1.433776617050171,1.958077311515808
1758301031646508300,4.00750830078125,0.0359899178147316,-0.3221982419490814,1.348793864250183
1758301031656482300,4.017482421875,0.26522308588027954,0.8883043527603149,0.7881067395210266
1758301031666456300,4.027456298828125,0.5597046613693237,1.0216259956359863,0.2399076372385025
1758301031676430300,4.037430419921875,0.7606081962585449,0.5437992215156555,0.3567247986793518
1758301031686404400,4.047404296875,0.6790515780448914,-0.02096627466380596,0.7175418138504028
1758301031696378000,4.057378173828125,0.7756953239440918,-0.008693895302712917,0.7865339517593384
1758301031706352000,4.06735205078125,1.2398383617401123,0.6347094178199768,0.41988450288772583
1758301031716326100,4.077326171875,1.7737648487091064,1.2516000270843506,-0.13364285230636597
1758301031726300200,4.087300048828125,2.058417320251465,1.2655034065246582,-0.43909862637519836
1758301031736274200,4.097274169921875,1.3791534900665283,0.7754766941070557,-0.4923993945121765
1758301031746249200,4.107249267578125,0.7505759596824646,0.8162552714347839,-0.43984949588775635
1758301031756223200,4.11722314453125,0.9678507447242737,1.482657551765442,-0.4520494341850281
1758301031766197200,4.127197265625,1.4234899282455444,1.9287750720977783,-0.492104709148407
1758301031776171300,4.137171142578125,1.7833762168884277,1.4891606569290161,-0.5386891961097717
1758301031786145300,4.147145263671875,1.880720615386963,0.8157271146774292,-0.36294886469841003
1758301031796119300,4.157119384765625,1.790616512298584,0.375861793756485,-0.10292206704616547
1758301031806093300,4.16709326171875,1.5760644674301147,0.3473367393016815,0.05657671391963959
1758301031816067300,4.1770673828125,1.3701496124267578,0.40858277678489685,0.08977754414081573
1758301031826041300,4.187041259765625,1.183912754058838,0.4333456754684448,0.03265053778886795
1758301031836015000,4.19701513671875,0.9718241691589355,0.8046502470970154,-0.12287593632936478
1758301031845989000,4.206989013671875,0.8084437847137451,1.6057215929031372,-0.4242642819881439
1758301031855964200,4.216964111328125,0.66888028383255,2.2947399616241455,-0.7630602121353149
1758301031865938200,4.226938232421875,0.6541725397109985,2.3735318183898926,-0.88185054063797
1758301031875912200,4.236912109375,0.6981199979782104,1.7385889291763306,-0.6925472021102905
1758301031885886200,4.24688623046875,0.7838014364242554,0.8656964302062988,-0.2938801944255829
1758301031895860200,4.256860107421875,0.9796303510665894,0.06497228145599365,0.14103186130523682
1758301031905834200,4.266834228515625,1.2365702390670776,-0.39270415902137756,0.5434357523918152
1758301031915808300,4.276808349609375,1.31367826461792,-0.6502662301063538,0.6018815040588379
1758301031925782300,4.2867822265625,1.2423814535140991,-0.8108016848564148,0.6040661334991455
1758301031935756300,4.29675634765625,1.0847910642623901,-0.9847154021263123,0.6511471271514893
1758301031945730300,4.306730224609375,1.0865213871002197,-0.7021306157112122,0.4681060314178467
1758301031955705000,4.316705078125,1.02799391746521,-0.6555703282356262,0.34604403376579285
1758301031965679000,4.32667919921875,0.9849227666854858,-0.7396354079246521,0.4092261791229248
1758301031976277000,4.337277099609375,0.9342929124832153,-0.6715514063835144,0.4217483699321747
1758301031986251000,4.3472509765625,0.8974752426147461,-0.5300529599189758,0.43617957830429077
1758301031996225000,4.35722509765625,0.8129590153694153,-0.3154599666595459,0.41826584935188293
1758301032006199000,4.367198974609375,0.7761027812957764,-0.06358131021261215,0.3608500361442566
1758301032016173000,4.377173095703125,0.6808058023452759,-0.055885039269924164,0.2526218295097351
1758301032026147000,4.38714697265625,0.6290420293807983,-0.08336267620325089,0.1314639151096344
1758301032036121000,4.39712109375,0.5827938318252563,-0.23508882522583008,0.0028337673284113407
1758301032046095000,4.40709521484375,0.5692720413208008,-0.4360464811325073,-0.08841836452484131
1758301032056068600,4.417068603515625,0.5878334641456604,-0.4554758369922638,-0.12744592130184174
1758301032066042600,4.427042724609375,0.6189624071121216,-0.2800268530845642,-0.038153182715177536
1758301032076017700,4.437017578125,0.6793232560157776,-0.03162209689617157,0.21021348237991333
1758301032085991700,4.44699169921875,0.6883754134178162,0.32112208008766174,0.534404456615448
1758301032095965700,4.456965576171875,0.5817424654960632,0.5311616063117981,0.8076258897781372
1758301032105939700,4.466939697265625,0.4148915410041809,0.695127546787262,0.9154557585716248
1758301032115913700,4.476913818359375,0.24201348423957825,0.7975908517837524,0.8969990015029907
1758301032125887700,4.4868876953125,0.07703306525945663,0.7684003114700317,0.7641560435295105
1758301032135861800,4.49686181640625,-0.06846234947443008,0.7391497492790222,0.46013620495796204
1758301032145835500,4.50683544921875,-0.20773714780807495,0.9043938517570496,0.2680906057357788
1758301032155809500,4.5168095703125,-0.3398328721523285,1.1117560863494873,0.25556787848472595
1758301032165784600,4.52678466796875,-0.5532631874084473,1.1653718948364258,0.2991947829723358
1758301032175758600,4.536758544921875,-0.7388938069343567,1.4520009756088257,0.4574264883995056
1758301032185732600,4.546732666015625,-0.9972743988037109,1.3467813730239868,0.7271966934204102
1758301032195706600,4.55670654296875,-1.112825870513916,1.1256654262542725,1.0612499713897705
1758301032205680600,4.5666806640625,-1.1429027318954468,0.6973230838775635,1.3229622840881348
1758301032215654700,4.576654541015625,-1.0520497560501099,0.16810528934001923,1.204016923904419
1758301032225628700,4.586628662109375,-0.8364253044128418,-0.4280787408351898,0.820140540599823
1758301032235602700,4.596602783203125,-0.5191906094551086,-1.0211656093597412,0.3513972759246826
1758301032245577500,4.606577392578125,-0.05358583852648735,-1.6274927854537964,-0.16369229555130005
1758301032255551500,4.616551513671875,0.4848683178424835,-2.162158727645874,-0.65040522813797
1758301032265525500,4.626525390625,1.001855731010437,-2.5616538524627686,-1.0874357223510742
1758301032275499500,4.63649951171875,1.38715660572052,-2.668837308883667,-1.4820029735565186
1758301032285473500,4.6464736328125,1.4473904371261597,-1.975024700164795,-1.646866798400879
1758301032295447600,4.656447509765625,1.154538631439209,-1.0763717889785767,-1.405763864517212
1758301032305421600,4.666421630859375,0.9522819519042969,-0.41604310274124146,-0.9094623923301697
1758301032315395600,4.6763955078125,0.7807070016860962,-0.08558769524097443,-0.28631892800331116
1758301032325370600,4.68637060546875,0.6495407223701477,-0.1999206244945526,0.3293653130531311
1758301032335344600,4.6963447265625,0.6834696531295776,-0.30563268065452576,0.7121012210845947
1758301032345318700,4.706318603515625,0.8106188178062439,-0.38255369663238525,0.8707327246665955
1758301032355292700,4.716292724609375,1.062617301940918,-0.5797067284584045,0.8269810080528259
1758301032365266700,4.7262666015625,0.9700781106948853,-0.636074423789978,0.8223892450332642
1758301032375240400,4.736240478515625,1.7354458570480347,-0.8968120217323303,0.3408207595348358
1758301032385214500,4.74621435546875,1.742157220840454,-0.8423826694488525,-0.025221018120646477
1758301032395188500,4.7561884765625,1.6986092329025269,-0.8057282567024231,-0.43815505504608154
1758301032405163500,4.76616357421875,1.6670273542404175,-0.9147772789001465,-0.7797231674194336
1758301032415137500,4.776137451171875,1.6096434593200684,-0.8232236504554749,-1.0638514757156372
1758301032425111600,4.786111572265625,1.500612735748291,-0.9182409048080444,-1.413516640663147
1758301032435085600,4.79608544921875,1.1353600025177002,-0.9244820475578308,-1.450158715248108
1758301032445059600,4.8060595703125,1.0526961088180542,-1.0555834770202637,-1.4500106573104858
1758301032455033600,4.81603369140625,0.9040089249610901,-1.2356895208358765,-1.418971061706543
1758301032465007600,4.826007568359375,0.7299177646636963,-1.1784032583236694,-1.4250684976577759
1758301032474981600,4.835981689453125,0.7723930478096008,-1.1513996124267578,-1.2272025346755981
1758301032484956400,4.845956298828125,0.9119756817817688,-0.6585050821304321,-0.7965753674507141
1758301032494930400,4.855930419921875,1.1984330415725708,-0.33005717396736145,-0.29980260133743286
1758301032504904400,4.865904541015625,1.2416408061981201,-0.16669169068336487,-0.026953935623168945
1758301032514878500,4.87587841796875,1.4027186632156372,0.25556662678718567,-0.07929383963346481
1758301032524852500,4.8858525390625,1.5605387687683105,0.4312773048877716,-0.04898655787110329
1758301032534826500,4.895826416015625,1.376849889755249,0.678733229637146,0.010827243328094482
1758301032544800500,4.905800537109375,1.3201110363006592,0.5297704339027405,0.0741700604557991
1758301032554775600,4.915775634765625,1.1797211170196533,0.1904006451368332,0.19097603857517242
1758301032564749600,4.92574951171875,1.0617589950561523,0.4459613263607025,0.1739024668931961
1758301032574723600,4.9357236328125,0.6683089137077332,1.1150230169296265,0.1274295151233673
1758301032584697600,4.945697509765625,0.3456653654575348,0.6348003149032593,0.30407583713531494
1758301032594671400,4.95567138671875,0.21636490523815155,0.4573749303817749,0.341957151889801
1758301032604645400,4.965645263671875,0.12199167907238007,0.33298587799072266,0.31064459681510925
1758301032614619400,4.975619384765625,0.13808782398700714,0.2937218248844147,0.3582392930984497
1758301032624594400,4.985594482421875,-0.03551884740591049,0.31731313467025757,0.4083734154701233
1758301032634568400,4.995568359375,-0.22886113822460175,0.3460281193256378,0.33425045013427734
1758301032644542500,5.00554248046875,-0.3983975350856781,0.2363859862089157,0.28015169501304626
1758301032654516500,5.0155166015625,-0.6027325987815857,0.3600082993507385,0.35768964886665344
1758301032664490500,5.025490478515625,-0.8258724212646484,0.18040353059768677,0.27940744161605835
1758301032674464500,5.035464599609375,-0.8517714142799377,0.21247783303260803,0.14105674624443054
1758301032684438500,5.0454384765625,-1.1238503456115723,0.6184043288230896,0.3472439646720886
1758301032694413600,5.05541357421875,-1.621839165687561,0.7376830577850342,0.48521992564201355
1758301032704387600,5.0653876953125,-2.623839855194092,0.6783415079116821,0.41285932064056396
1758301032714361600,5.075361572265625,-1.3002058267593384,-0.9657710790634155,-0.7085415720939636
1758301032724335600,5.085335693359375,0.5571444034576416,-0.7589102983474731,-1.1462640762329102
1758301032734309600,5.0953095703125,2.612776041030884,-0.8067100644111633,-1.0911778211593628
1758301032744283600,5.10528369140625,2.2888340950012207,-0.10387325286865234,-0.6163156032562256
1758301032754257700,5.115257568359375,2.6821744441986084,0.2286684811115265,-0.35905399918556213
1758301032764232700,5.125232666015625,3.534249782562256,-0.7542656064033508,-0.4634176790714264
1758301032774206700,5.135206787109375,3.893383741378784,-0.8903592228889465,-0.4562476575374603
1758301032784180700,5.1451806640625,3.37935471534729,-0.21225278079509735,-0.18284694850444794
1758301032794154800,5.15515478515625,2.5976638793945312,-0.056879427284002304,0.08293572813272476
1758301032804128800,5.165128662109375,1.8048369884490967,-0.12915901839733124,0.2339131087064743
1758301032814102500,5.1751025390625,0.918982744216919,-0.261971652507782,0.24100163578987122
1758301032824076500,5.18507666015625,0.0024993610568344593,-0.22068476676940918,0.17318116128444672
1758301032834051600,5.195051513671875,-0.3672829568386078,0.19565679132938385,0.0788637176156044
1758301032844025600,5.205025634765625,-0.3324628174304962,0.21478962898254395,-0.11840396374464035
1758301032853999600,5.21499951171875,-0.06584096699953079,0.2724803388118744,-0.25472158193588257
1758301032863973600,5.2249736328125,0.04469333589076996,0.3366532027721405,-0.257875919342041
1758301032873947600,5.23494775390625,0.03927753120660782,0.35992231965065,-0.20502068102359772
1758301032883921700,5.244921630859375,-0.08276329934597015,0.34275373816490173,-0.10514317452907562
1758301032893895700,5.254895751953125,0.05090900510549545,0.4382714629173279,-0.43960610032081604
1758301032903870500,5.264870361328125,0.9147330522537231,0.2817378342151642,-1.3123435974121094
1758301032913844500,5.274844482421875,1.423410415649414,-0.28292396664619446,-1.059437870979309
1758301032923818500,5.284818603515625,1.1220895051956177,0.4264560341835022,-0.4350947141647339
1758301032933792500,5.29479248046875,0.6286688446998596,0.5238984823226929,-0.4813748598098755
1758301032943766500,5.3047666015625,-0.06454595923423767,0.022505708038806915,-0.573424220085144
1758301032953740500,5.314740478515625,-0.23401382565498352,-0.4520839750766754,-0.35870420932769775
1758301032963714600,5.324714599609375,-0.10243865847587585,-0.5324391722679138,0.24574437737464905
1758301032973689600,5.334689697265625,-0.12530456483364105,-0.16363078355789185,1.001969814300537
1758301032983663600,5.34466357421875,-0.417406290769577,0.40353772044181824,1.636940598487854
1758301032993637600,5.3546376953125,-1.0281436443328857,0.45129725337028503,2.154174566268921
1758301033003611600,5.364611572265625,-1.767377257347107,0.28860998153686523,2.0652475357055664
1758301033013585700,5.374585693359375,-2.5228471755981445,0.277079313993454,1.0188440084457397
1758301033023559700,5.3845595703125,-2.5201573371887207,0.5457209944725037,-0.14925339818000793
1758301033033533700,5.39453369140625,-0.9348457455635071,0.4310154616832733,-0.5201500058174133
1758301033043508500,5.404508544921875,-0.14143730700016022,0.4407251179218292,-0.5317807793617249
1758301033053482500,5.414482421875,-0.27222034335136414,0.37050580978393555,-0.6727871894836426
1758301033063456000,5.4244560546875,-0.28009721636772156,0.07487914711236954,-0.5381694436073303
1758301033073430000,5.434429931640625,-0.16882795095443726,0.07367672771215439,-0.04439970478415489
1758301033083404000,5.444404052734375,-0.16743239760398865,0.1339230090379715,0.5482772588729858
1758301033093378000,5.4543779296875,-0.05229993909597397,-0.16553878784179688,0.7522665858268738
1758301033103352000,5.46435205078125,0.3601859509944916,-0.3696993887424469,0.6763288378715515
1758301033113327000,5.4743271484375,0.6155881881713867,-0.5936726331710815,0.5594621300697327
1758301033123301000,5.484301025390625,0.545199990272522,-0.36835992336273193,0.4321569800376892
1758301033133275100,5.494275146484375,0.27848491072654724,-0.31099382042884827,0.25420135259628296
1758301033143249200,5.504249267578125,0.15348461270332336,-0.21827037632465363,0.2750037908554077
1758301033153223000,5.514222900390625,0.01657737046480179,-0.15669037401676178,0.4221639335155487
1758301033163197000,5.524197021484375,-0.05977668985724449,-0.1508800983428955,0.6375063061714172
1758301033173171000,5.5341708984375,-0.0620342493057251,-0.23113605380058289,0.7381359338760376
1758301033183146000,5.54414599609375,-0.05036685988306999,-0.2739735543727875,0.7997462153434753
1758301033193120000,5.5541201171875,-0.05355013534426689,-0.2880347669124603,0.8216555118560791
1758301033203094000,5.564093994140625,-0.05058541148900986,-0.26980990171432495,0.8365232348442078
1758301033213068000,5.574068115234375,-0.08106422424316406,-0.5898312926292419,0.7109341621398926
1758301033223042000,5.5840419921875,-0.18568803369998932,-0.6436500549316406,0.4727092683315277
1758301033233016000,5.59401611328125,-0.22983846068382263,-0.3999524414539337,0.519282341003418
1758301033242990800,5.603990966796875,-0.24977973103523254,-0.2910354435443878,0.5932653546333313
1758301033252964900,5.61396484375,-0.27912938594818115,-0.2710641324520111,0.5766336917877197
1758301033262939000,5.62393896484375,-0.34495842456817627,-0.24328045547008514,0.5586446523666382
1758301033272913000,5.633912841796875,-0.3921043574810028,-0.3025437593460083,0.5234653949737549
1758301033282887000,5.643886962890625,-0.40776512026786804,-0.3966556787490845,0.5301541090011597
1758301033292861000,5.65386083984375,-0.38389337062835693,-0.41834497451782227,0.5692296028137207
1758301033302835000,5.6638349609375,-0.34958159923553467,-0.4559558629989624,0.5539848804473877
1758301033312810200,5.673810302734375,-0.3010452091693878,-0.5195452570915222,0.499385803937912
1758301033322784000,5.683783935546875,-0.25457996129989624,-0.5634185075759888,0.4432949125766754
1758301033332758000,5.693758056640625,-0.2329612374305725,-0.588489294052124,0.38900822401046753
1758301033342732000,5.70373193359375,-0.22512367367744446,-0.6193923950195312,0.3405224084854126
1758301033352706000,5.7137060546875,-0.2247590869665146,-0.6709216237068176,0.278999388217926
1758301033362680000,5.72368017578125,-0.22357535362243652,-0.7588114142417908,0.21629221737384796
1758301033372655000,5.733655029296875,-0.2114526480436325,-0.8816976547241211,0.19459490478038788
1758301033382629000,5.743629150390625,-0.1797686666250229,-1.0069388151168823,0.28359782695770264
1758301033392603100,5.75360302734375,-0.1391458660364151,-1.1302186250686646,0.4419184923171997
1758301033402577200,5.7635771484375,-0.10157295316457748,-1.293033480644226,0.6167888045310974
1758301033412551200,5.77355126953125,-0.09922431409358978,-1.4605026245117188,0.7840625047683716
1758301033422525200,5.783525146484375,-0.07856138795614243,-1.6196327209472656,0.8975353837013245
1758301033432499200,5.793499267578125,0.17037706077098846,-1.7007254362106323,0.6061530709266663
1758301033442474200,5.80347412109375,0.6615024209022522,-1.7455893754959106,-0.02950538508594036
1758301033452448300,5.8134482421875,0.6831885576248169,-1.589348316192627,-0.4139614701271057
1758301033462422000,5.823422119140625,0.2488335371017456,-1.1625032424926758,-0.3978826105594635
1758301033472396000,5.83339599609375,-0.05774397403001785,-0.6476306319236755,-0.1892591267824173
1758301033482370000,5.8433701171875,0.05792812630534172,-0.2732800841331482,0.012829883955419064
1758301033492344000,5.853343994140625,0.12609653174877167,-0.04883074015378952,0.08891560137271881
1758301033502319000,5.863319091796875,0.09423624724149704,0.10839393734931946,0.06843699514865875
1758301033512293000,5.873293212890625,0.07277888804674149,0.22703669965267181,0.0445345900952816
1758301033522267100,5.88326708984375,0.07569243013858795,0.3189772069454193,0.052192624658346176
1758301033532241200,5.8932412109375,0.08606331050395966,0.3534313142299652,0.07689078152179718
1758301033542215200,5.903215087890625,0.09321262687444687,0.36729562282562256,0.09275386482477188
1758301033552189200,5.913189208984375,0.08849722892045975,0.41048702597618103,0.10526593029499054
1758301033562164000,5.9231640625,0.1120198518037796,0.4728666841983795,0.09815031290054321
1758301033572138000,5.933137939453125,0.12831439077854156,0.6292368769645691,0.0975702702999115
1758301033582112000,5.943112060546875,0.09785886108875275,0.7734651565551758,0.08972427994012833
1758301033592086000,5.9530859375,0.05559956282377243,0.782858669757843,0.04719838872551918
1758301033602060000,5.96306005859375,0.055289965122938156,0.7098232507705688,0.00877496786415577
1758301033612034000,5.973033935546875,0.07801791280508041,0.543117880821228,-0.013194247148931026
1758301033622008000,5.983008056640625,0.10848978161811829,0.2573533058166504,-0.06074497476220131
1758301033631983000,5.992983154296875,0.11902950704097748,-0.11126150190830231,-0.13449589908123016
1758301033641957000,6.00295703125,0.13108378648757935,-0.40304654836654663,-0.11829989403486252
1758301033651931100,6.01293115234375,0.1029600128531456,-0.5245586037635803,-0.08769750595092773
1758301033661905200,6.0229052734375,0.05018199235200882,-0.5442182421684265,-0.10384371131658554
1758301033671879200,6.032879150390625,-0.010578290559351444,-0.4818986654281616,-0.1610952913761139
1758301033681854000,6.04285400390625,-0.0741363987326622,-0.33224761486053467,-0.22329439222812653
1758301033691828000,6.052827880859375,-0.14505238831043243,-0.10918150097131729,-0.23678728938102722
1758301033701802000,6.062802001953125,-0.2123572826385498,0.1236368790268898,-0.22323186695575714
1758301033711776000,6.07277587890625,-0.250818133354187,0.3197792172431946,-0.23434948921203613
1758301033721750000,6.08275,-0.2486722767353058,0.40740761160850525,-0.27279132604599
1758301033731724000,6.09272412109375,-0.21755750477313995,0.3469962179660797,-0.286872535943985
1758301033741699000,6.102698974609375,-0.16752047836780548,0.2125338315963745,-0.275181382894516
1758301033751673000,6.112673095703125,-0.13114969432353973,0.08184292167425156,-0.24078240990638733
1758301033761647000,6.122647216796875,-0.11050177365541458,-0.05355063080787659,-0.19662927091121674
1758301033771620900,6.132620849609375,-0.10542365908622742,-0.1784917712211609,-0.19062118232250214
1758301033781595000,6.142594970703125,-0.11387740075588226,-0.2734238803386688,-0.21671991050243378
1758301033791569000,6.15256884765625,-0.1176321879029274,-0.31487733125686646,-0.23719030618667603
1758301033801544000,6.1625439453125,-0.14046578109264374,-0.28981804847717285,-0.23047444224357605
1758301033811518000,6.17251806640625,-0.17735855281352997,-0.17715196311473846,-0.22690553963184357
1758301033821492000,6.182491943359375,-0.22537410259246826,-0.022211356088519096,-0.2584324777126312
1758301033831466000,6.192466064453125,-0.2858678102493286,0.14138875901699066,-0.3296312987804413
1758301033841440000,6.20243994140625,-0.3545841574668884,0.2994207739830017,-0.3971688151359558
1758301033851414000,6.2124140625,-0.42139407992362976,0.4434850215911865,-0.42835578322410583
1758301033861389000,6.22238916015625,-0.49368882179260254,0.5599221587181091,-0.4480119049549103
1758301033871363000,6.232363037109375,-0.562476634979248,0.6432492733001709,-0.44006210565567017
1758301033881337000,6.242337158203125,-0.6121641397476196,0.6910609602928162,-0.39871343970298767
1758301033891311000,6.25231103515625,-0.64007967710495,0.7025106549263,-0.3247944712638855
1758301033901285000,6.26228515625,-0.6414166688919067,0.6951814889907837,-0.2454189509153366
1758301033911260200,6.27226025390625,-0.614342987537384,0.6591055393218994,-0.16313686966896057
1758301033921234200,6.282234130859375,-0.5600565075874329,0.6099462509155273,-0.08532244712114334
1758301033931208200,6.292208251953125,-0.4898707866668701,0.547511100769043,-0.02478959783911705
1758301033941182200,6.30218212890625,-0.4142948389053345,0.4700389802455902,0.026794511824846268
1758301033951156200,6.31215625,-0.33646395802497864,0.39278626441955566,0.08100581914186478
1758301033961130200,6.322130126953125,-0.2797449827194214,0.33146509528160095,0.1307133138179779
1758301033971105000,6.33210498046875,-0.24609117209911346,0.26969626545906067,0.16283155977725983
1758301033981079000,6.3420791015625,-0.23461543023586273,0.20099449157714844,0.1896975189447403
1758301033991053000,6.352052978515625,-0.23836462199687958,0.13551056385040283,0.22150951623916626
1758301034001027000,6.362027099609375,-0.2421153485774994,0.05748976767063141,0.2800302505493164
1758301034011001000,6.3720009765625,-0.23982928693294525,-0.018956536427140236,0.3378394842147827
1758301034020976000,6.38197607421875,-0.22844454646110535,-0.07953664660453796,0.3574850261211395
1758301034030950100,6.3919501953125,-0.1943744570016861,-0.11739880591630936,0.33671289682388306
1758301034040924200,6.401924072265625,-0.14389663934707642,-0.13576917350292206,0.2927156686782837
1758301034050898200,6.411898193359375,-0.09036629647016525,-0.11480210721492767,0.22284817695617676
1758301034060872400,6.42187255859375,-0.03517751023173332,-0.07911434769630432,0.10145658254623413
1758301034070846500,6.431846435546875,0.01420681644231081,-0.03697009012103081,-0.05241446942090988
1758301034080821500,6.441821533203125,0.048747628927230835,0.020764416083693504,-0.22353269159793854
1758301034090795500,6.45179541015625,0.06959512084722519,0.05252394452691078,-0.38375407457351685
1758301034100769500,6.46176953125,0.09386970847845078,0.06067720055580139,-0.4631304442882538
1758301034110743600,6.47174365234375,0.1280340701341629,0.05303952097892761,-0.4454081654548645
1758301034120717600,6.481717529296875,0.1652807593345642,0.04757557064294815,-0.3656123876571655
1758301034130692600,6.491692626953125,0.18356655538082123,0.037972211837768555,-0.27220574021339417
1758301034140666400,6.501666259765625,0.19990810751914978,0.016045209020376205,-0.19670526683330536
1758301034150640400,6.511640380859375,0.2384032905101776,-0.025475069880485535,-0.14637765288352966
1758301034160614400,6.521614501953125,0.2939794361591339,-0.059634968638420105,-0.14257097244262695
1758301034170588400,6.53158837890625,0.32135486602783203,-0.10673084110021591,-0.2277308702468872
1758301034180562400,6.5415625,0.3044658899307251,-0.12693250179290771,-0.34719669818878174
1758301034190537500,6.551537353515625,0.2656625509262085,-0.12345173954963684,-0.4153400659561157
1758301034200511500,6.561511474609375,0.22976531088352203,-0.09647983312606812,-0.3985986113548279
1758301034210485500,6.571485595703125,0.2220887541770935,-0.03560183197259903,-0.36979731917381287
1758301034220459500,6.58145947265625,0.2619296908378601,-0.06273943930864334,-0.3754213750362396
1758301034230433500,6.59143359375,0.3345290720462799,-0.2435949742794037,-0.2672930359840393
1758301034240408600,6.60140869140625,0.3454163670539856,-0.32949206233024597,-0.1272418051958084
1758301034250382600,6.611382568359375,0.27123507857322693,-0.33224737644195557,0.06454840302467346
1758301034260356600,6.621356689453125,0.20344284176826477,-0.24826018512248993,0.22777926921844482
1758301034270330600,6.63133056640625,0.19745312631130219,-0.10378103703260422,0.3131546378135681
1758301034280304600,6.6413046875,0.1214509829878807,0.001677439664490521,0.24346165359020233
1758301034290279700,6.65127978515625,-0.008154415525496006,0.07107355445623398,-0.057677142322063446
1758301034300253700,6.661253662109375,-0.06191709265112877,0.09837810695171356,-0.44055601954460144
1758301034310227700,6.671227783203125,-0.13602833449840546,0.1718752235174179,-0.7053746581077576
1758301034320201700,6.68120166015625,-0.22840616106987,0.26284298300743103,-0.794981837272644
1758301034330175700,6.69117578125,-0.25235623121261597,0.29321712255477905,-0.6441640853881836
1758301034340149800,6.701149658203125,-0.2043572962284088,0.31301140785217285,-0.22565577924251556
1758301034350124500,6.71112451171875,-0.14402125775814056,0.3292982280254364,0.322894424200058
1758301034360098600,6.7210986328125,-0.11447109282016754,0.37063607573509216,0.7790421843528748
1758301034370072600,6.731072509765625,-0.09876216948032379,0.4291499853134155,0.9559946060180664
1758301034380046600,6.741046630859375,-0.04914012923836708,0.40994763374328613,0.9012285470962524
1758301034390020600,6.7510205078125,0.02548271045088768,0.36600708961486816,0.7829221487045288
1758301034399995600,6.76099560546875,0.096572645008564,0.3040064573287964,0.7441723346710205
1758301034409969700,6.7709697265625,0.12908770143985748,0.27527546882629395,0.7864167094230652
1758301034419943700,6.780943603515625,0.1429208517074585,0.2633107900619507,0.8525260090827942
1758301034429917700,6.790917724609375,0.1505689173936844,0.2249671369791031,0.913728654384613
1758301034439891500,6.800891357421875,0.14046230912208557,0.1687200665473938,0.9400367140769958
1758301034449865500,6.810865478515625,0.09597233682870865,0.09930635988712311,0.9338890314102173
1758301034459840500,6.820840576171875,0.042257603257894516,0.02121243253350258,0.9024966359138489
1758301034469814500,6.830814453125,-0.008602647110819817,-0.04720257967710495,0.8432682156562805
1758301034479788500,6.84078857421875,-0.043263550847768784,-0.08357243239879608,0.7893834710121155
1758301034489762600,6.850762451171875,-0.08337634801864624,-0.12290012836456299,0.7487742900848389
1758301034499736600,6.860736572265625,-0.12909406423568726,-0.17472335696220398,0.6948928236961365
1758301034509711600,6.870711669921875,-0.16344724595546722,-0.2618774175643921,0.6307117342948914
1758301034519685600,6.880685546875,-0.17670807242393494,-0.3679365813732147,0.5806966423988342
1758301034529659400,6.890659423828125,-0.16062738001346588,-0.4795278310775757,0.5399559140205383
1758301034539633400,6.90063330078125,-0.11560522019863129,-0.5478628277778625,0.4953790307044983
1758301034549607400,6.910607421875,-0.07541731745004654,-0.5672175884246826,0.45606252551078796
1758301034559582500,6.92058251953125,-0.07388859987258911,-0.526788592338562,0.4483945667743683
1758301034569556500,6.930556396484375,-0.12250034511089325,-0.4203662574291229,0.4349501430988312
1758301034579530500,6.940530517578125,-0.19634637236595154,-0.3260989189147949,0.3873039186000824
1758301034589504500,6.95050439453125,-0.2639661729335785,-0.27277684211730957,0.3374386131763458
1758301034599478500,6.960478515625,-0.3099912405014038,-0.22571055591106415,0.30422163009643555
1758301034609452500,6.97045263671875,-0.35210755467414856,-0.19580885767936707,0.23924820125102997
1758301034619427600,6.980427490234375,-0.34140482544898987,-0.22128477692604065,0.14649105072021484
1758301034629401300,6.9904013671875,-0.23836606740951538,-0.2773195505142212,0.06891156733036041
1758301034639375400,7.000375244140625,-0.11770341545343399,-0.32548215985298157,0.10926072299480438
1758301034649349400,7.010349365234375,-0.04792487248778343,-0.27971893548965454,0.2618023157119751
1758301034659323400,7.020323486328125,-0.04141902178525925,-0.2828648090362549,0.47752708196640015
1758301034669298700,7.030298583984375,-0.08249162137508392,-0.24604636430740356,0.6444894075393677
1758301034679272700,7.040272705078125,-0.16705858707427979,-0.2199472188949585,0.6894600987434387
1758301034689246700,7.050246826171875,-0.2213095724582672,-0.18815520405769348,0.6770763993263245
1758301034699220700,7.060220703125,-0.22610244154930115,-0.14730675518512726,0.6127253174781799
1758301034709194800,7.07019482421875,-0.18064866960048676,-0.09304163604974747,0.5498337149620056
1758301034719169500,7.08016943359375,-0.15823175013065338,-0.002693276619538665,0.5165747404098511
1758301034729143600,7.0901435546875,-0.18164680898189545,0.063785620033741,0.5449943542480469
1758301034739117600,7.10011767578125,-0.202654629945755,0.1035691574215889,0.5999040603637695
1758301034749091600,7.110091552734375,-0.23814179003238678,0.12734158337116241,0.6423207521438599
1758301034759065600,7.120065673828125,-0.2610451877117157,0.12048783898353577,0.6990476250648499
1758301034769039600,7.13003955078125,-0.22901828587055206,0.07898008078336716,0.7479997277259827
1758301034779014700,7.1400146484375,-0.15793325006961823,0.07990951836109161,0.8139712810516357
1758301034788988700,7.14998876953125,-0.14984683692455292,0.26659393310546875,0.7994658350944519
1758301034798962700,7.159962646484375,-0.2146950513124466,0.45270198583602905,0.6354370713233948
1758301034808936700,7.169936767578125,-0.23647437989711761,0.5281988382339478,0.398262619972229
1758301034818910700,7.17991064453125,-0.09930679947137833,0.5405649542808533,0.21866028010845184
1758301034828885500,7.189885498046875,0.16047364473342896,0.5108350515365601,0.1305283010005951
1758301034838859500,7.199859619140625,0.4206896126270294,0.5549018979072571,0.03878674656152725
1758301034848833500,7.20983349609375,0.6304891705513,0.4139316976070404,-0.09105300903320312
1758301034858807600,7.2198076171875,0.735817551612854,0.17244738340377808,-0.2114088535308838
1758301034868781600,7.229781494140625,0.6610538363456726,-0.06890425086021423,-0.2239142656326294
1758301034878756600,7.239756591796875,0.4014182984828949,-0.28131595253944397,-0.11961159110069275
1758301034888730600,7.249730712890625,0.031289488077163696,-0.3980114161968231,-0.010121055878698826
1758301034898704600,7.25970458984375,-0.33356809616088867,-0.44180727005004883,0.023078367114067078
1758301034908678700,7.2696787109375,-0.6111685633659363,-0.45543840527534485,0.00023031036835163832
1758301034918652400,7.27965234375,-0.7419531941413879,-0.517144501209259,-0.02798634022474289
1758301034928627500,7.28962744140625,-0.7986431121826172,-0.5935561656951904,-0.10194045305252075
1758301034938601500,7.2996015625,-0.7135099172592163,-0.5977112054824829,-0.20806293189525604
1758301034948575500,7.309575439453125,-0.4113439619541168,-0.4451245367527008,-0.24170823395252228
1758301034958549500,7.319549560546875,-0.11203502118587494,-0.26628151535987854,-0.3650866150856018
1758301034968523500,7.3295234375,0.027575071901082993,-0.2744006812572479,-0.6446543335914612
1758301034978498600,7.33949853515625,0.08181313425302505,-0.342528760433197,-0.8232042789459229
1758301034988472600,7.34947265625,0.033008575439453125,-0.3070701062679291,-0.8054830431938171
1758301034998446600,7.359446533203125,-0.17170771956443787,-0.18200117349624634,-0.630212664604187
1758301035008420400,7.36942041015625,-0.3248418867588043,-0.23875872790813446,-0.45688509941101074
1758301035018394400,7.379394287109375,-0.4325266182422638,-0.09322544932365417,-0.30359381437301636
1758301035028368400,7.389368408203125,-0.5207305550575256,-0.042205408215522766,-0.2256620079278946
1758301035038343700,7.39934375,-0.6163359880447388,-0.20909900963306427,-0.25385400652885437
1758301035048317700,7.409317626953125,-0.6415625214576721,-0.5939937233924866,-0.3426605761051178
1758301035058292000,7.4192919921875,-0.5548424124717712,-1.1161434650421143,-0.40242254734039307
1758301035068266000,7.429265869140625,-0.3278161883354187,-1.7840206623077393,-0.21861808001995087
1758301035078240000,7.439239990234375,-0.13315153121948242,-2.3463833332061768,0.1644480973482132
1758301035088214800,7.44921484375,-0.0011202581226825714,-2.603327751159668,0.5792953372001648
1758301035098188800,7.459188720703125,0.20610041916370392,-2.555859088897705,0.8886179327964783
1758301035108162800,7.469162841796875,0.47296780347824097,-2.101752519607544,1.0480507612228394
1758301035118136800,7.47913671875,0.7907354235649109,-1.275639533996582,1.0290961265563965
1758301035128110800,7.48911083984375,1.1097551584243774,-0.4384623169898987,0.7896459698677063
1758301035138086000,7.4990859375,1.4206173419952393,0.04469683766365051,0.3160558342933655
1758301035148060000,7.509059814453125,1.6859664916992188,-0.008656663820147514,-0.3456973433494568
1758301035158034000,7.519033935546875,1.7842485904693604,-0.18131573498249054,-1.088607668876648
1758301035168008000,7.529008056640625,1.8494526147842407,-0.29327449202537537,-1.7709695100784302
1758301035177982000,7.53898193359375,1.9341622591018677,-0.44926929473876953,-2.1565449237823486
1758301035187956700,7.548956787109375,1.8566017150878906,-0.5307668447494507,-2.04117751121521
1758301035197930800,7.5589306640625,1.486667275428772,-0.35572999715805054,-1.5047022104263306
1758301035207904800,7.56890478515625,0.739098846912384,-0.15381047129631042,-0.6318762302398682
1758301035217878800,7.578878662109375,-0.4033695459365845,-0.12620724737644196,-0.006212408654391766
1758301035227852800,7.588852783203125,-1.6792322397232056,0.36675265431404114,-0.4299335777759552
1758301035237827800,7.598827880859375,-2.8956339359283447,1.0905256271362305,-2.0837786197662354
1758301035247801900,7.6088017578125,-2.973689317703247,-1.0747820138931274,-3.083340883255005
1758301035257775900,7.61877587890625,-0.9767009615898132,-2.2861502170562744,-1.8638237714767456
1758301035267750000,7.62875,0.9069352746009827,-0.2869631052017212,-0.04134216532111168
1758301035277724000,7.638723876953125,1.010019302368164,0.5041484832763672,0.7275567054748535
1758301035287698700,7.64869873046875,0.7924222350120544,0.7430028915405273,0.5643746852874756
1758301035297672700,7.658672607421875,0.531738817691803,0.5344727635383606,0.31135785579681396
1758301035307646700,7.668646728515625,0.224565789103508,0.23622001707553864,0.4334653913974762
1758301035317620700,7.678620849609375,-0.02839345671236515,0.4363803267478943,0.9097234010696411
1758301035327594800,7.6885947265625,-0.11060976982116699,0.8570607304573059,1.4706114530563354
1758301035337569800,7.69856982421875,-0.05125939100980759,1.0400729179382324,1.7329555749893188
1758301035347543800,7.708543701171875,0.15184286236763,0.9767887592315674,1.612588882446289
1758301035357517800,7.718517822265625,0.5577517747879028,1.0147881507873535,1.2751154899597168
1758301035367491800,7.728491943359375,0.9525917768478394,1.0268269777297974,1.0219905376434326
1758301035377465600,7.738465576171875,1.2108510732650757,0.9658529758453369,1.0152781009674072
1758301035387441000,7.74844091796875,1.265066146850586,1.054389476776123,1.1416704654693604
1758301035397415000,7.758414794921875,1.1106555461883545,1.3698681592941284,1.263450264930725
1758301035407389000,7.768388916015625,0.8201260566711426,1.660469651222229,1.334654688835144
1758301035417363000,7.778363037109375,0.5496150255203247,1.7674319744110107,1.3115780353546143
1758301035427337000,7.7883369140625,0.3185565173625946,1.7957227230072021,1.1266227960586548
1758301035437310700,7.798310791015625,0.08170037716627121,1.602730393409729,0.8070653676986694
1758301035447286000,7.8082861328125,-0.22796852886676788,1.2988965511322021,0.3476408123970032
1758301035457259800,7.818259765625,-0.566783607006073,0.8492111563682556,-0.20161420106887817
1758301035467233800,7.82823388671875,-0.7531571984291077,0.16941986978054047,-0.6426792144775391
1758301035477207800,7.838207763671875,-0.7372452020645142,-0.22471703588962555,-0.8484565615653992
1758301035487181800,7.848181884765625,-0.5168814063072205,-0.2831430733203888,-0.9026846289634705
1758301035497156900,7.858156982421875,-0.20221632719039917,-0.34603050351142883,-0.9121848940849304
1758301035507131000,7.868130859375,0.12922444939613342,-0.5008837580680847,-0.9445809125900269
1758301035517105000,7.87810498046875,0.5174389481544495,-0.6993483304977417,-0.923129677772522
1758301035527079000,7.888078857421875,0.9016204476356506,-0.8827120661735535,-0.7655107975006104
1758301035537053000,7.898052978515625,1.149351954460144,-1.0243537425994873,-0.5262258648872375
1758301035547027700,7.90802783203125,1.1467399597167969,-1.1612484455108643,-0.272683322429657
1758301035557001700,7.918001708984375,0.9912916421890259,-1.2325036525726318,-0.04776923358440399
1758301035566975700,7.927975830078125,0.8731216192245483,-1.3112297058105469,0.13273528218269348
1758301035576949800,7.93794970703125,0.7750469446182251,-1.311789631843567,0.30466189980506897
1758301035586923800,7.947923828125,0.7146008610725403,-1.050657033920288,0.5609168410301208
1758301035596898800,7.95789892578125,0.7124208211898804,-0.7037811875343323,0.890082597732544
1758301035606872800,7.967872802734375,0.7834816575050354,-0.4118225574493408,0.9322265982627869
1758301035616846800,7.977846923828125,0.8528842926025391,0.09023383259773254,0.3615656793117523
1758301035626820900,7.98782080078125,0.798783540725708,0.2946751117706299,-0.5676256418228149
1758301035637417700,7.998417724609375,0.45606228709220886,-0.2041063755750656,-1.3181378841400146
1758301035647392800,8.008392822265625,-0.42423468828201294,-0.9698046445846558,-1.2948360443115234
1758301035657366800,8.01836669921875,-0.947717010974884,-0.9875301122665405,-0.5097185373306274
1758301035667340800,8.0283408203125,-0.6436681747436523,-0.8012211918830872,0.31363531947135925
1758301035677314800,8.038314697265625,-0.32108184695243835,-1.2031604051589966,0.4282514750957489
1758301035687288800,8.048288818359374,-0.17264047265052795,-1.3324719667434692,-0.02701801434159279
1758301035697263600,8.058263671875,-0.2755017578601837,-1.0141187906265259,-0.4512558877468109
1758301035707237600,8.068237548828124,-0.5151076912879944,-0.6258317828178406,-0.6993157267570496
1758301035717211600,8.078211669921876,-0.6860272884368896,-0.41764184832572937,-0.8207331895828247
1758301035727185700,8.088185546875,-0.7400567531585693,-0.2654168903827667,-0.8087692260742188
1758301035737159700,8.09815966796875,-0.7066141366958618,-0.20873412489891052,-0.7900117635726929
1758301035747135000,8.108135009765626,-0.5995404124259949,-0.3320310115814209,-0.7366752624511719
1758301035757109000,8.11810888671875,-0.37201666831970215,-0.839621901512146,-0.5426848530769348
1758301035767083000,8.1280830078125,-0.12055806070566177,-1.3301180601119995,-0.07552670687437057
1758301035777057000,8.13805712890625,-0.06006288155913353,-1.6357296705245972,0.5397317409515381
1758301035787030800,8.14803076171875,-0.16919788718223572,-1.6906601190567017,1.0692112445831299
1758301035797005800,8.158005859375,-0.29526323080062866,-1.4725803136825562,1.4623290300369263
1758301035806979800,8.167979736328125,-0.2715347111225128,-0.9084020853042603,1.5660992860794067
1758301035816953900,8.177953857421874,-0.03878884017467499,-0.1368645578622818,1.2048474550247192
1758301035826927900,8.187927978515624,0.4486317038536072,0.5545440316200256,0.4532463550567627
1758301035836902000,8.19790185546875,0.9378537535667419,0.7190514802932739,-0.3543906807899475
1758301035846877000,8.207876953125,1.3102731704711914,0.4838509261608124,-1.0131126642227173
1758301035856851000,8.217850830078126,1.750240445137024,0.4682309627532959,-1.569717526435852
1758301035866825000,8.227824951171876,2.171947956085205,0.45498067140579224,-1.9336028099060059
1758301035876799000,8.237799072265625,2.3634681701660156,0.37970924377441406,-1.890077829360962
1758301035886773000,8.24777294921875,2.1871676445007324,0.4663597047328949,-1.4885125160217285
1758301035896747800,8.257747802734375,1.6812232732772827,0.9344149231910706,-0.9569389820098877
1758301035907345700,8.268345703125,0.8850001096725464,1.5456421375274658,-0.2692525088787079
1758301035917319700,8.278319580078126,-0.08420636504888535,0.9509974122047424,1.041498064994812
1758301035927293700,8.288293701171876,-1.152245283126831,0.6608816981315613,2.0354108810424805
1758301035937267700,8.298267822265625,-2.417609214782715,2.9056694507598877,0.37030544877052307
1758301035947241700,8.30824169921875,-4.2182817459106445,4.1905364990234375,-2.962747573852539
1758301035957216800,8.318216796875,-4.181406021118164,-0.1525857150554657,-4.408252716064453
1758301035967190800,8.328190673828125,0.20079059898853302,-4.548523902893066,-2.8543407917022705
1758301035977164800,8.338164794921875,3.2248306274414062,-1.6776444911956787,0.5861948132514954
1758301035987138800,8.348138916015625,2.444700241088867,2.626816749572754,2.197091817855835
1758301035997112800,8.35811279296875,1.4816734790802002,3.814249277114868,2.11214280128479
1758301036007087600,8.368087646484375,1.0208702087402344,2.362436294555664,1.4275779724121094
1758301036017061600,8.3780615234375,0.5199654698371887,1.3579175472259521,0.4105776250362396
1758301036027035600,8.38803564453125,-0.05804729089140892,0.9106231331825256,-0.0336562842130661
1758301036037009700,8.398009765625,-0.36543524265289307,0.7712918519973755,0.7180594801902771
1758301036046985000,8.40798486328125,-0.6709485650062561,1.2418707609176636,1.7190719842910767
1758301036056958200,8.417958251953126,-0.5109956860542297,1.5733789205551147,2.1344704627990723
1758301036066932200,8.42793212890625,0.2406407743692398,1.6632252931594849,1.589440107345581
1758301036076906200,8.43790625,0.8817191123962402,1.1451821327209473,0.9083444476127625
1758301036086880300,8.44788037109375,1.303585171699524,0.8499943614006042,0.8409414291381836
1758301036096855000,8.45785498046875,1.4166215658187866,0.881730318069458,1.2888197898864746
1758301036106829000,8.4678291015625,1.0958222150802612,1.320398211479187,1.7154792547225952
1758301036116803000,8.477802978515625,0.4932003617286682,1.5695159435272217,1.7930998802185059
1758301036126777000,8.487777099609374,-0.09167882055044174,1.669097661972046,1.4081188440322876
1758301036136751000,8.497751220703124,-0.5459878444671631,1.7173892259597778,0.7659146189689636
1758301036146726100,8.50772607421875,-0.9106486439704895,1.5406943559646606,0.11210033297538757
1758301036156700200,8.5177001953125,-1.1380031108856201,1.166407585144043,-0.41579216718673706
1758301036166674200,8.527674072265626,-1.1595394611358643,0.7137759327888489,-0.7284078598022461
1758301036176648200,8.537648193359376,-1.0660231113433838,0.371082603931427,-0.7652429938316345
1758301036186622200,8.547622314453125,-0.8516042232513428,0.18347541987895966,-0.6709975004196167
1758301036196597200,8.55759716796875,-0.44155094027519226,0.03837107867002487,-0.6197581887245178
1758301036206571300,8.5675712890625,0.05928845331072807,-0.2030750960111618,-0.7218888401985168
1758301036216545300,8.577545166015625,0.48109403252601624,-0.4388291537761688,-0.8489419221878052
1758301036226519300,8.587519287109375,0.7837049961090088,-0.6066945791244507,-0.8562570810317993
1758301036236494300,8.597494384765625,0.8653717637062073,-0.6991745829582214,-0.7070832848548889
1758301036246468400,8.60746826171875,0.8069055676460266,-0.7734259366989136,-0.47845518589019775
1758301036256442400,8.6174423828125,0.766237735748291,-0.8982831239700317,-0.2832149863243103
1758301036266416400,8.62741650390625,0.8260297179222107,-1.0993448495864868,-0.0683833658695221
1758301036276390400,8.637390380859374,0.8792877197265625,-0.8467429876327515,0.2732296884059906
1758301036286365200,8.647365234375,0.9159338474273682,-0.41635778546333313,0.8605379462242126
1758301036296339200,8.657339111328126,0.9557662010192871,-0.19092322885990143,1.3199105262756348
1758301036306313200,8.667313232421876,0.9509466886520386,0.21729835867881775,1.279558539390564
1758301036316287200,8.677287353515625,0.8174669742584229,0.5040714740753174,0.6451171636581421
1758301036326261200,8.68726123046875,0.2519444525241852,0.4324934482574463,-0.3669642210006714
1758301036336236300,8.697236328125,-0.5778523087501526,0.04292931407690048,-1.1908953189849854
1758301036346210300,8.707210205078125,-0.7330043315887451,-0.7508532404899597,-1.2354705333709717
1758301036356184300,8.717184326171875,-0.2821406126022339,-1.354860782623291,-0.39353734254837036
1758301036366158300,8.727158447265625,0.12247291952371597,-1.8241206407546997,0.43648821115493774
1758301036376133000,8.737133056640625,0.09463800489902496,-1.8229278326034546,0.3846351206302643
1758301036386107100,8.747107177734375,-0.24678084254264832,-1.4613083600997925,-0.058662425726652145
1758301036396081200,8.7570810546875,-0.6578518152236938,-1.0263378620147705,-0.38551291823387146
1758301036406055200,8.76705517578125,-0.9478815197944641,-0.7968486547470093,-0.5142288208007812
1758301036416030200,8.7770302734375,-1.0930572748184204,-0.7334635853767395,-0.4879981577396393
1758301036426004200,8.787004150390626,-1.1126935482025146,-0.7733585834503174,-0.3781273066997528
1758301036435978200,8.796978271484376,-1.0733710527420044,-1.0470311641693115,-0.26040083169937134
1758301036445952300,8.8069521484375,-1.0651905536651611,-1.182550311088562,-0.1648617833852768
1758301036455926300,8.81692626953125,-1.0782387256622314,-1.0168699026107788,-0.142849400639534
1758301036465901000,8.826901123046875,-1.017276644706726,-0.8959096670150757,-0.128562331199646
1758301036475875000,8.836875,-0.7830908298492432,-1.0413923263549805,0.016906362026929855
1758301036485849000,8.84684912109375,-0.41540098190307617,-1.4143600463867188,0.3021213114261627
1758301036495823000,8.856822998046875,-0.017449064180254936,-1.6863054037094116,0.5059765577316284
1758301036505798400,8.86679833984375,0.38266584277153015,-1.746717929840088,0.6206362843513489
1758301036515772400,8.8767724609375,0.7308362126350403,-1.4120149612426758,0.5447150468826294
1758301036525746400,8.886746337890624,1.0397306680679321,-0.6984483599662781,0.17713326215744019
1758301036535720400,8.896720458984374,1.3156018257141113,0.036705490201711655,-0.36787551641464233
1758301036545695200,8.9066953125,1.5136816501617432,0.4408732056617737,-0.7864131331443787
1758301036555669200,8.916669189453126,1.610005497932434,0.4088219404220581,-1.03153395652771
1758301036565643300,8.926643310546876,1.5859553813934326,0.198984295129776,-1.1944853067398071
1758301036575617300,8.9366171875,1.5346771478652954,0.26687273383140564,-1.3122241497039795
1758301036585591300,8.94659130859375,1.5128389596939087,0.4751332700252533,-1.285186767578125
1758301036595566300,8.95656640625,1.3608137369155884,0.6878125071525574,-1.0204782485961914
1758301036605540400,8.966540283203125,0.8716654777526855,0.9058369994163513,-0.5995742678642273
1758301036615514400,8.976514404296875,0.0016042888164520264,0.40921837091445923,0.3238830864429474
1758301036625488400,8.98648828125,-0.9641255140304565,0.35503342747688293,0.6512463092803955
1758301036635463200,8.996463134765625,-2.1336960792541504,1.8186308145523071,-0.9591642022132874
1758301036645437200,9.006437255859375,-3.456023693084717,1.9776170253753662,-3.793482542037964
1758301036655411200,9.0164111328125,-2.0433900356292725,-1.07632315158844,-4.007409572601318
1758301036665385200,9.02638525390625,0.9780469536781311,-1.6190210580825806,-1.2540093660354614
1758301036675360300,9.0363603515625,1.7390847206115723,0.4744991660118103,1.1472175121307373
1758301036685334300,9.046334228515626,1.239599585533142,1.612778902053833,1.6927069425582886
1758301036695308300,9.056308349609376,0.5705792307853699,1.6775908470153809,1.032071828842163
1758301036705282300,9.0662822265625,0.17674696445465088,0.6726105213165283,0.40502017736434937
1758301036715256300,9.07625634765625,-0.01496992539614439,-0.09779228270053864,0.2965407073497772
1758301036725231000,9.086231201171875,-0.24827136099338531,0.04273739829659462,0.7146623134613037
1758301036735205000,9.096205078125,-0.5480202436447144,0.5432124137878418,1.5532844066619873
1758301036745179100,9.10617919921875,-0.6996766328811646,1.0202796459197998,2.0542333126068115
1758301036755153200,9.116153076171875,-0.4132596254348755,0.9288879632949829,1.9145498275756836
1758301036765128200,9.126128173828125,0.16209234297275543,0.7704128623008728,1.3067744970321655
1758301036775102200,9.136102294921875,0.5757705569267273,0.537953794002533,0.850386917591095
1758301036785076200,9.146076171875,0.8484691977500916,0.6130756735801697,0.8563957810401917
1758301036795050200,9.15605029296875,0.9630914926528931,0.7440007328987122,1.1240811347961426
1758301036805025300,9.166025390625,0.7742251753807068,1.00519597530365,1.3279205560684204
1758301036814999300,9.175999267578124,0.36705508828163147,1.046874761581421,1.393176794052124
1758301036824973300,9.185973388671876,-0.045622214674949646,1.305088758468628,1.16349196434021
1758301036834947300,9.195947265625,-0.46843841671943665,1.219495415687561,0.8161130547523499
1758301036844922400,9.20592236328125,-0.8192062377929688,1.0783408880233765,0.4598824977874756
1758301036854896400,9.215896484375,-1.006272315979004,0.9063621759414673,0.09204156696796417
1758301036864870400,9.225870361328125,-1.013724684715271,0.7461403012275696,-0.3057401478290558
1758301036874844400,9.235844482421875,-0.8955740332603455,0.5372544527053833,-0.6636396646499634
1758301036884818400,9.245818359375,-0.7581354975700378,0.40995514392852783,-0.9264414310455322
1758301036894793200,9.255793212890625,-0.535298764705658,0.3525315523147583,-1.0258607864379883
1758301036904767200,9.265767333984375,-0.15436317026615143,0.21146203577518463,-1.020320177078247
1758301036914741200,9.2757412109375,0.26595547795295715,0.0021016416139900684,-0.9840386509895325
1758301036924715300,9.28571533203125,0.5626817345619202,-0.2535783350467682,-0.9278180003166199
1758301036934690300,9.295690185546874,0.665158212184906,-0.5358431935310364,-0.8369417190551758
1758301036944664300,9.305664306640624,0.662182629108429,-0.7782182693481445,-0.7122777700424194
1758301036954638300,9.315638427734376,0.6826578974723816,-0.96612149477005,-0.5794151425361633
1758301036964612400,9.3256123046875,0.7824178338050842,-1.0078010559082031,-0.3702845573425293
1758301036974587100,9.335587158203126,0.8492522239685059,-0.6912644505500793,0.0020595048554241657
1758301036984561200,9.34556103515625,0.8755705952644348,-0.16027860343456268,0.6569955348968506
1758301036994535200,9.35553515625,0.8961665630340576,-0.09105892479419708,1.203709363937378
1758301037004509200,9.36550927734375,1.0582854747772217,-0.19363351166248322,1.2560495138168335
1758301037014483200,9.375483154296875,1.2469334602355957,-0.38102486729621887,0.8556208610534668
1758301037024458200,9.385458251953125,1.0281329154968262,-0.6120306849479675,0.24526959657669067
1758301037034432300,9.395432373046875,0.03553125634789467,-0.280119925737381,-0.5222879648208618
1758301037044406300,9.40540625,-0.7122223377227783,-0.46405914425849915,-1.0492080450057983
1758301037054380300,9.41538037109375,-0.5728960037231445,-1.0473623275756836,-0.6196918487548828
1758301037064356400,9.4253564453125,-0.33314812183380127,-1.6008672714233398,0.34237611293792725
1758301037074330400,9.435330322265624,-0.33968499302864075,-1.5779879093170166,0.6964023113250732
1758301037084304400,9.445304443359374,-0.6109204888343811,-1.1249397993087769,0.36605310440063477
1758301037094278400,9.4552783203125,-0.9531060457229614,-0.6678952574729919,-0.12562817335128784
1758301037104253200,9.465253173828126,-1.1832339763641357,-0.4790249168872833,-0.483881413936615
1758301037114227200,9.475227294921876,-1.2629749774932861,-0.3878200948238373,-0.6185252666473389
1758301037124201200,9.485201171875,-1.2598934173583984,-0.39134132862091064,-0.5894421935081482
1758301037134175200,9.49517529296875,-1.2671215534210205,-0.48931822180747986,-0.5522984862327576
1758301037144150300,9.505150390625,-1.2666696310043335,-0.5397768616676331,-0.5393187999725342
1758301037154124300,9.515124267578125,-1.1427993774414062,-0.6109665632247925,-0.47636860609054565
1758301037164098300,9.525098388671875,-0.8929088711738586,-0.6663563251495361,-0.28341352939605713
1758301037174072300,9.535072265625,-0.619060754776001,-0.8488056659698486,0.14997828006744385
1758301037184047000,9.545047119140625,-0.34651604294776917,-1.0759693384170532,0.7229528427124023
1758301037194021000,9.555021240234375,-0.060238320380449295,-1.262669563293457,1.2685999870300293
1758301037203995100,9.5649951171875,0.1979900449514389,-1.106041669845581,1.5021064281463623
1758301037213969200,9.57496923828125,0.45763450860977173,-0.6002452969551086,1.1973356008529663
1758301037223944400,9.5849443359375,0.7570630311965942,0.027030576020479202,0.38064125180244446
1758301037233918500,9.59491845703125,1.0185046195983887,0.3210883140563965,-0.5830377340316772
1758301037243892500,9.604892578125,1.1978520154953003,0.1562141627073288,-1.3591324090957642
1758301037253866200,9.6148662109375,1.2797982692718506,-0.27296513319015503,-1.8267219066619873
1758301037263840300,9.62484033203125,1.34019935131073,-0.5370492339134216,-1.9610629081726074
1758301037273815300,9.634815185546875,1.4574317932128906,-0.42010802030563354,-1.7339305877685547
1758301037283789300,9.644789306640625,1.4786350727081299,0.02823728881776333,-1.2585229873657227
1758301037293763300,9.654763427734375,1.2371668815612793,0.7426554560661316,-0.8270405530929565
1758301037303737300,9.6647373046875,0.7391916513442993,1.2663167715072632,-0.5217722654342651
1758301037313712400,9.67471240234375,0.07151421159505844,0.9387603402137756,-0.06903789192438126
1758301037323686400,9.684686279296875,-0.7913612127304077,-0.3595527708530426,0.9027242660522461
1758301037333660400,9.694660400390624,-2.05381441116333,0.3457050919532776,0.5367904901504517
1758301037343634400,9.704634521484374,-4.10770845413208,2.875702381134033,-2.7630996704101562
1758301037353609200,9.714609130859374,-3.687938690185547,0.6724322438240051,-5.003876686096191
1758301037363583200,9.724583251953124,0.16238760948181152,-3.7232956886291504,-2.2981088161468506
1758301037373557200,9.73455712890625,2.2235238552093506,-0.8746104836463928,0.29761359095573425
1758301037383531300,9.74453125,1.8786598443984985,1.783258318901062,1.908732533454895
1758301037393506300,9.75450634765625,1.2133042812347412,2.4503443241119385,1.5834676027297974
1758301037403480300,9.764480224609375,0.963302493095398,1.268980860710144,0.8578673601150513
1758301037413454300,9.774454345703125,0.6072620749473572,0.5652300119400024,0.37127697467803955
1758301037423428400,9.784428466796875,0.10764746367931366,0.5593534708023071,0.6373584270477295
1758301037433403100,9.794403076171875,-0.3751709461212158,0.9338405728340149,1.3506299257278442
1758301037443377200,9.804377197265625,-0.7440354824066162,0.937575101852417,1.8436803817749023
1758301037453351200,9.81435107421875,-0.6906099319458008,0.7198569774627686,1.8821241855621338
1758301037463325200,9.8243251953125,-0.2708350419998169,0.8450103402137756,1.545807957649231
1758301037473300200,9.83430029296875,0.19819027185440063,0.8724092841148376,1.1800886392593384
1758301037483274200,9.844274169921874,0.6429051160812378,0.8017316460609436,1.110930323600769
1758301037493248300,9.854248291015624,0.9550386667251587,0.7485435009002686,1.3463462591171265
1758301037503222300,9.86422216796875,0.8770149350166321,0.8838469982147217,1.538570761680603
1758301037513196300,9.8741962890625,0.4154358208179474,0.8765223026275635,1.5376425981521606
1758301037523171300,9.88417138671875,-0.11887100338935852,1.2903658151626587,1.3241260051727295
1758301037533145300,9.894145263671875,-0.6130056381225586,1.5738459825515747,0.9789329767227173
1758301037543119400,9.904119384765625,-0.9919748306274414,1.61111319065094,0.5223134756088257
1758301037553093400,9.91409326171875,-1.218536376953125,1.4488426446914673,0.024464482441544533
1758301037563068400,9.924068359375,-1.2368842363357544,1.091322898864746,-0.4511348009109497
1758301037573042400,9.93404248046875,-1.1518534421920776,0.5399978160858154,-0.7180691957473755
1758301037583016400,9.944016357421875,-1.0025161504745483,0.22796779870986938,-0.7778611779212952
1758301037592990500,9.953990478515625,-0.7440775036811829,0.12333501130342484,-0.7211921215057373
1758301037602965200,9.96396533203125,-0.2817569971084595,0.07442579418420792,-0.7196221947669983
1758301037612939300,9.973939208984374,0.19030511379241943,-0.0381084606051445,-0.828220546245575
1758301037622913300,9.983913330078124,0.5134275555610657,-0.1251719892024994,-0.918994128704071
1758301037632887300,9.99388720703125,0.6241478323936462,-0.24349866807460785,-0.8652065396308899
1758301037642862300,10.0038623046875,0.5956599712371826,-0.4072476625442505,-0.684300422668457
1758301037652836400,10.01383642578125,0.6355208158493042,-0.6356843709945679,-0.513179361820221
1758301037662810400,10.023810302734375,0.8072262406349182,-0.781451940536499,-0.29788246750831604
1758301037672784400,10.033784423828125,0.9105862379074097,-0.492326021194458,0.14987900853157043
1758301037682759200,10.04375927734375,0.911014974117279,-0.015187149867415428,0.9323692321777344
1758301037692733200,10.053733154296875,0.9186055064201355,0.2667069435119629,1.4983347654342651
1758301037702707200,10.063707275390625,0.9929031729698181,0.5052039623260498,1.3789753913879395
1758301037712681200,10.07368115234375,0.9261937737464905,0.05240673944354057,0.7997848391532898
1758301037722656300,10.08365625,0.40539583563804626,-0.25318458676338196,0.22686301171779633
1758301037732630300,10.09363037109375,-0.2880323827266693,0.3950655162334442,-0.554240882396698
1758301037742604300,10.103604248046874,-0.18567007780075073,-0.09498512744903564,-0.9623285531997681
1758301037752578300,10.113578369140624,0.09497164934873581,-0.9644597768783569,-0.41245198249816895
1758301037762553000,10.123552978515624,0.15679188072681427,-1.4089491367340088,0.5496887564659119
1758301037772527000,10.133527099609376,-0.053685225546360016,-1.1183009147644043,0.9830490946769714
1758301037782501000,10.143501220703126,-0.5418410301208496,-0.5864788293838501,0.7598607540130615
1758301037792475100,10.15347509765625,-1.0836690664291382,-0.25277236104011536,0.20173239707946777
1758301037802450400,10.163450439453126,-1.4039140939712524,-0.08761324733495712,-0.2254927009344101
1758301037812424400,10.173424560546875,-1.4962338209152222,0.014929136261343956,-0.31309521198272705
1758301037822398500,10.1833984375,-1.4966408014297485,-0.022488277405500412,-0.23459665477275848
1758301037832372500,10.19337255859375,-1.5097652673721313,-0.24123458564281464,-0.21536383032798767
1758301037842346500,10.203346435546875,-1.4791615009307861,-0.3221725523471832,-0.27743998169898987
1758301037852321300,10.2133212890625,-1.2728816270828247,-0.22816148400306702,-0.2866661548614502
1758301037862295300,10.22329541015625,-0.9432315230369568,-0.4245986342430115,-0.08371997624635696
1758301037872269300,10.233269287109374,-0.5557106137275696,-0.9310161471366882,0.24821200966835022
1758301037882243300,10.243243408203124,-0.11543631553649902,-1.3102086782455444,0.5618237257003784
1758301037892218400,10.25321826171875,0.36280322074890137,-1.3939628601074219,0.8337399959564209
1758301037902192400,10.2631923828125,0.816815197467804,-1.1850395202636719,0.8250506520271301
1758301037912166400,10.27316650390625,1.2126095294952393,-0.7277951836585999,0.41350245475769043
1758301037922140400,10.283140380859376,1.5246065855026245,-0.27670252323150635,-0.11151684075593948
1758301037932115200,10.293115234375,1.7214480638504028,-0.10443457216024399,-0.505193293094635
1758301037942089200,10.303089111328125,1.8888405561447144,-0.16837520897388458,-0.8184148669242859
1758301037952063200,10.313063232421875,1.9769864082336426,-0.11426559835672379,-1.133009433746338
1758301037962037200,10.323037353515625,2.021986246109009,0.1633276641368866,-1.41848886013031
1758301037972012300,10.33301220703125,1.9546854496002197,0.5433467030525208,-1.6084238290786743
1758301037981986300,10.342986328125,1.5226656198501587,0.7393393516540527,-1.3876482248306274
1758301037991960300,10.352960205078125,0.5768279433250427,0.17225699126720428,-0.7431871294975281
1758301038001934300,10.362934326171874,-1.1095668077468872,0.848189115524292,-1.498586654663086
1758301038011909000,10.3729091796875,-3.11875581741333,0.9449323415756226,-3.6108758449554443
1758301038021883100,10.382883056640624,-1.9731365442276,-1.2310305833816528,-4.030834674835205
1758301038031857200,10.392857177734374,0.013608363457024097,-0.9700400829315186,-2.140446662902832
1758301038041831200,10.4028310546875,0.904940128326416,1.139380931854248,-0.29251885414123535
1758301038051806200,10.41280615234375,0.7119009494781494,1.6017934083938599,0.1428082436323166
1758301038061779500,10.422779541015625,0.05896974727511406,1.2512500286102295,-0.08820260316133499
1758301038071753500,10.43275341796875,-0.6268619298934937,0.3841703534126282,0.1399957835674286
1758301038081727500,10.4427275390625,-0.7261989116668701,-0.38995251059532166,0.7646135687828064
1758301038091702500,10.45270263671875,-0.4587216377258301,-0.13282768428325653,1.5236612558364868
1758301038101676500,10.462676513671875,-0.4281696081161499,0.4814684987068176,2.244959831237793
1758301038111650600,10.472650634765625,-0.644952654838562,0.5016289353370667,2.721163034439087
1758301038121624600,10.48262451171875,-0.7050924301147461,0.8080658316612244,2.3377280235290527
1758301038131599400,10.492599365234375,-0.18196436762809753,0.7983227968215942,1.341959834098816
1758301038141573400,10.502573486328124,0.656438410282135,0.4052087664604187,0.5955923795700073
1758301038151547400,10.51254736328125,1.1291539669036865,0.546116292476654,0.4825529456138611
1758301038161521400,10.522521484375,1.2411692142486572,0.8604063391685486,0.7719312310218811
1758301038171496400,10.532496337890626,1.3099888563156128,1.0895854234695435,1.206272006034851
1758301038181470500,10.542470458984376,1.2242076396942139,0.97588711977005,1.6791893243789673
1758301038191444500,10.552444580078125,0.920734703540802,1.1309664249420166,2.0247249603271484
1758301038201418500,10.56241845703125,0.4711962938308716,1.363899827003479,2.1340951919555664
1758301038211393300,10.572393310546875,-0.07315029203891754,1.5076282024383545,1.9015880823135376
1758301038221367300,10.5823671875,-0.6225463151931763,1.7276039123535156,1.4252614974975586
1758301038231341300,10.59234130859375,-1.0660653114318848,1.8380130529403687,0.8356569409370422
1758301038241315300,10.6023154296875,-1.3034371137619019,1.5520521402359009,0.15502570569515228
1758301038251290400,10.612290283203125,-1.3853087425231934,1.142606496810913,-0.49866366386413574
1758301038261264400,10.622264404296875,-1.2687019109725952,0.7651633620262146,-0.9619354605674744
1758301038271238400,10.63223828125,-0.9674146771430969,0.5205315947532654,-1.191396713256836
1758301038281212400,10.64221240234375,-0.5455172061920166,0.2813890874385834,-1.1825547218322754
1758301038291187500,10.6521875,-0.0754188820719719,-0.05203932523727417,-1.0379735231399536
1758301038301161500,10.662161376953126,0.39254459738731384,-0.39222246408462524,-0.8757950067520142
1758301038311135500,10.672135498046876,0.813873291015625,-0.632850170135498,-0.7033482789993286
1758301038321109500,10.682109619140626,1.1052145957946777,-0.8813960552215576,-0.5748518109321594
1758301038331084500,10.69208447265625,1.2340984344482422,-1.066100001335144,-0.30665624141693115
1758301038341058600,10.70205859375,1.182644009590149,-0.8710504770278931,0.20093773305416107
1758301038351032600,10.712032470703125,0.9863030910491943,-0.3801068961620331,0.9554076790809631
1758301038361006600,10.722006591796875,0.7342208027839661,0.4206089675426483,1.6502602100372314
1758301038370981400,10.7319814453125,0.5749296545982361,1.2325009107589722,1.720681071281433
1758301038380955400,10.741955322265625,0.677824079990387,1.5677624940872192,1.0331414937973022
1758301038390929400,10.751929443359375,0.8757258653640747,0.7099120020866394,-0.050775688141584396
1758301038400903400,10.7619033203125,0.8042886853218079,-0.4960639476776123,-1.226750373840332
1758301038410878500,10.77187841796875,0.660089373588562,-1.2488261461257935,-1.830273151397705
1758301038420852500,10.7818525390625,0.623774528503418,-1.7009518146514893,-1.4987943172454834
1758301038430826500,10.791826416015626,0.30085256695747375,-1.7660644054412842,-0.4213794767856598
1758301038440801300,10.80180126953125,0.03834983706474304,-1.5993605852127075,0.9614661335945129
1758301038450775300,10.811775390625,-0.29049575328826904,-1.3268280029296875,1.6483466625213623
1758301038460749300,10.821749267578125,-0.6121392846107483,-0.933040201663971,1.128919243812561
1758301038470723300,10.831723388671875,-0.8024302124977112,-0.594950795173645,-0.002851816825568676
1758301038480698400,10.841698486328125,-0.9874604940414429,-0.7944918870925903,-0.7422292232513428
1758301038490672400,10.85167236328125,-1.151511311531067,-0.46579256653785706,-0.9483340978622437
1758301038500646400,10.861646484375,-1.231615662574768,-0.24946212768554688,-0.6439270377159119
1758301038510620400,10.871620361328125,-1.217854619026184,-0.30347496271133423,-0.22915232181549072
1758301038520595500,10.881595458984375,-1.2331349849700928,-0.5011289119720459,-0.03340812772512436
1758301038530569500,10.891569580078125,-1.2461148500442505,-0.63507080078125,-0.053437940776348114
1758301038540543500,10.90154345703125,-1.1825337409973145,-0.6636680960655212,-0.1840127408504486
1758301038550517200,10.911517333984374,-1.0327876806259155,-0.7587250471115112,-0.26634472608566284
1758301038560492500,10.921492431640624,-0.7726060748100281,-1.1900655031204224,-0.20808835327625275
1758301038570466600,10.931466552734374,-0.4070534110069275,-1.6136075258255005,-0.0812196135520935
1758301038580440600,10.941440673828126,0.05755981430411339,-1.786399245262146,0.09541374444961548
1758301038590414600,10.95141455078125,0.5484117269515991,-1.8207650184631348,0.293113112449646
1758301038600389400,10.961389404296876,0.9391618967056274,-1.5496456623077393,0.3294239938259125
1758301038610363400,10.97136328125,1.2369340658187866,-0.8693172931671143,0.09181883186101913
1758301038620337400,10.98133740234375,1.4684107303619385,-0.1491878777742386,-0.29640400409698486
1758301038630311400,10.9913115234375,1.6246922016143799,0.24393761157989502,-0.6743606328964233
1758301038640286500,11.001286376953125,1.699234127998352,0.2532983422279358,-0.941868245601654
1758301038650260500,11.011260498046875,1.6629421710968018,0.16221052408218384,-1.0966601371765137
1758301038660234500,11.021234375,1.7058464288711548,0.2589908540248871,-1.180666446685791
1758301038670208500,11.03120849609375,1.7687664031982422,0.5007296800613403,-1.1218641996383667
1758301038680183300,11.041183349609375,1.5868726968765259,0.7963474988937378,-0.8769072890281677
1758301038690157300,11.0511572265625,1.0705679655075073,1.043384075164795,-0.5162206292152405
1758301038700131300,11.06113134765625,0.38513171672821045,1.1432515382766724,-0.18788963556289673
1758301038710106400,11.0711064453125,-0.37754300236701965,0.22213737666606903,0.5590086579322815
1758301038720080400,11.081080322265626,-1.283432960510254,0.19292090833187103,0.9413645267486572
1758301038730054400,11.091054443359376,-1.9653146266937256,1.7336692810058594,-0.38335323333740234
1758301038740028400,11.1010283203125,-2.453322172164917,2.540672779083252,-3.0160770416259766
1758301038750003500,11.11100341796875,-1.878431797027588,0.6745105981826782,-4.315868377685547
1758301038759977200,11.120977294921875,0.2606130540370941,-2.123072385787964,-2.5537607669830322
1758301038769951200,11.130951171875,1.5257891416549683,-0.20762676000595093,0.09832043200731277
1758301038779925200,11.14092529296875,0.9307826161384583,2.1313655376434326,1.249640703201294
1758301038789900500,11.150900634765625,0.28942692279815674,2.1024725437164307,1.0261101722717285
1758301038799874600,11.16087451171875,0.13565360009670258,0.7955614328384399,0.6171168684959412
1758301038809848600,11.1708486328125,0.05695224180817604,0.491599440574646,0.5354435443878174
1758301038819823600,11.18082373046875,-0.03516117483377457,0.5704013109207153,1.237310767173767
1758301038829797600,11.190797607421874,-0.2396346628665924,0.859963059425354,1.9976016283035278
1758301038839771400,11.200771484375,-0.47541308403015137,0.8016718029975891,2.2235870361328125
1758301038849745400,11.210745361328126,-0.1833532154560089,0.5656139254570007,1.9154244661331177
1758301038859720400,11.220720458984376,0.394820898771286,0.6200901865959167,1.3672701120376587
1758301038869694500,11.230694580078126,0.7949373722076416,0.640784502029419,1.0051021575927734
1758301038879668500,11.24066845703125,1.0414764881134033,0.7820798754692078,1.023238182067871
1758301038889642500,11.250642578125,1.0454323291778564,0.8255192637443542,1.307340145111084
1758301038899617500,11.260617431640625,0.7548683285713196,0.9017093777656555,1.5463594198226929
1758301038909591600,11.270591552734375,0.22519637644290924,1.4013876914978027,1.5885910987854004
1758301038919565300,11.2805654296875,-0.3863048255443573,1.6621977090835571,1.4042015075683594
1758301038929539300,11.290539306640625,-0.8922538161277771,1.7239596843719482,0.960918664932251
1758301038939514400,11.300514404296875,-1.2665200233459473,1.5878835916519165,0.36026450991630554
1758301038949488400,11.31048828125,-1.44512939453125,1.18705153465271,-0.15826654434204102
1758301038959462400,11.32046240234375,-1.4082112312316895,0.910729169845581,-0.5118358135223389
1758301038969437400,11.3304375,-1.222040057182312,0.6489476561546326,-0.6773967742919922
1758301038979411500,11.340411376953124,-0.8912522196769714,0.45869356393814087,-0.7877792119979858
1758301038989385500,11.350385498046874,-0.43263015151023865,0.18746317923069,-0.8770095109939575
1758301038999359500,11.360359375,0.07056987285614014,-0.09252318739891052,-1.0085718631744385
1758301039009334300,11.370334228515626,0.5081746578216553,-0.26970264315605164,-1.076718807220459
1758301039019308300,11.380308349609376,0.7917864322662354,-0.4079042077064514,-1.0660924911499023
1758301039029282300,11.3902822265625,0.9083003401756287,-0.6311401724815369,-0.9771114587783813
1758301039039256300,11.40025634765625,0.8773485422134399,-0.852821409702301,-0.7584891319274902
1758301039049231600,11.410231689453125,0.7541825771331787,-0.9460874795913696,-0.46444636583328247
1758301039059205600,11.42020556640625,0.6523893475532532,-0.9015205502510071,-0.23559081554412842
1758301039069179600,11.4301796875,0.6114477515220642,-0.7892459630966187,-0.07476479560136795
1758301039079153700,11.440153564453125,0.6440895795822144,-0.6169189214706421,0.18265235424041748
1758301039089128700,11.450128662109375,0.7411074638366699,-0.5994920134544373,0.6608461141586304
1758301039099102700,11.460102783203125,0.9093265533447266,-0.9846418499946594,1.022729516029358
1758301039109076700,11.47007666015625,1.2558714151382446,-1.0642262697219849,1.0692867040634155
1758301039119052000,11.480052001953124,1.2748565673828125,-1.09080970287323,0.7935841083526611
1758301039129025800,11.49002587890625,0.47200441360473633,-0.3014416992664337,-0.30661213397979736
1758301039138999800,11.499999755859376,-0.817155122756958,-0.31572049856185913,-1.8430291414260864
1758301039148973800,11.509973876953126,-0.738718569278717,-1.1087089776992798,-1.7606154680252075
1758301039158948900,11.519948974609376,-0.22720840573310852,-1.4306089878082275,-0.1977066695690155
1758301039168923000,11.5299228515625,0.02413184568285942,-1.7870213985443115,0.7587708234786987
1758301039178897000,11.53989697265625,-0.024598941206932068,-1.692599892616272,0.41955918073654175
1758301039188871000,11.549870849609375,-0.5330754518508911,-1.1102062463760376,-0.3358380198478699
1758301039198846000,11.559845947265625,-1.0293400287628174,-0.6337786316871643,-0.7557322382926941
1758301039208820000,11.569820068359375,-1.2593913078308105,-0.4768211841583252,-0.7810332179069519
1758301039218794000,11.5797939453125,-1.3779077529907227,-0.561849057674408,-0.6237909197807312
1758301039228768800,11.589768798828125,-1.5005648136138916,-0.6970973014831543,-0.5211528539657593
1758301039238742800,11.59974267578125,-1.5330168008804321,-0.854698657989502,-0.48177239298820496
1758301039248716800,11.609716796875,-1.386997938156128,-0.9408496022224426,-0.3459615409374237
1758301039258690800,11.61969091796875,-1.0556751489639282,-1.0327850580215454,-0.007365897297859192
1758301039268665900,11.629665771484374,-0.7040883302688599,-1.190645456314087,0.4717511832714081
1758301039278639900,11.639639892578124,-0.41419553756713867,-1.416591763496399,0.9625590443611145
1758301039288614000,11.64961376953125,-0.1934352070093155,-1.5442065000534058,1.3374358415603638
1758301039298588000,11.659587890625,0.0883229598402977,-1.2359472513198853,1.385888934135437
1758301039308562700,11.669562744140626,0.600085437297821,-0.46289998292922974,0.9834181070327759
1758301039318536700,11.67953662109375,1.2106963396072388,0.32842689752578735,0.17027033865451813
1758301039328510700,11.6895107421875,1.662326693534851,0.6935181617736816,-0.7439544796943665
1758301039338484700,11.699484619140625,1.8303651809692383,0.657639741897583,-1.4625046253204346
1758301039348459800,11.709459716796875,1.7338883876800537,0.46947023272514343,-1.9136416912078857
1758301039358433800,11.719433837890625,1.5912686586380005,0.2952081263065338,-2.0235800743103027
1758301039368407800,11.72940771484375,1.4368000030517578,0.06868339329957962,-1.6971855163574219
1758301039378382800,11.7393828125,1.1493133306503296,0.12479805946350098,-1.0875227451324463
1758301039388356900,11.74935693359375,0.5441664457321167,0.20650714635849,-0.15383011102676392
1758301039398331000,11.759330810546874,-0.4353257715702057,0.43973827362060547,0.5626654028892517
1758301039408305000,11.769304931640624,-1.4087327718734741,1.4886082410812378,-0.11849383264780045
1758301039418280000,11.779280029296874,-1.8402223587036133,2.5129034519195557,-2.507448434829712
1758301039428254000,11.78925390625,-1.0663809776306152,0.13193140923976898,-3.7344634532928467
1758301039438228000,11.79922802734375,0.1820664256811142,-1.4339708089828491,-2.118619680404663
1758301039448202000,11.809201904296875,0.5577005743980408,0.6101832985877991,0.022022129967808723
1758301039458176800,11.8191767578125,0.5209593772888184,1.4965347051620483,0.8373734354972839
1758301039468150800,11.82915087890625,0.29574012756347656,1.1870824098587036,0.9205788969993591
1758301039478124800,11.839124755859375,0.01827283576130867,0.5343307852745056,0.9606834650039673
1758301039488098800,11.849098876953125,-0.09414304047822952,0.4411593973636627,0.9782385230064392
1758301039498073900,11.859073974609375,-0.17859187722206116,0.6728283166885376,1.2736914157867432
1758301039508048000,11.8690478515625,-0.4428270757198334,0.8876404762268066,1.8857449293136597
1758301039518022000,11.87902197265625,-0.7932596802711487,1.2107384204864502,2.2806146144866943
1758301039527996700,11.88899658203125,-0.7047128677368164,1.1192198991775513,2.162686347961426
1758301039537970700,11.898970703125,-0.043356265872716904,0.8909919261932373,1.5780878067016602
1758301039547944700,11.90894482421875,0.6321284770965576,0.8804866671562195,0.8251585364341736
1758301039557918700,11.918918701171876,0.9645106792449951,0.7258907556533813,0.4088667631149292
1758301039567893800,11.928893798828126,1.1674883365631104,0.7806409001350403,0.5759731531143188
1758301039577867800,11.93886767578125,1.1532760858535767,0.9941039085388184,1.1009962558746338
1758301039587841800,11.948841796875,0.8288722038269043,1.3153624534606934,1.5507018566131592
1758301039597815800,11.95881591796875,0.28310951590538025,1.6383137702941895,1.7173337936401367
1758301039607790600,11.96879052734375,-0.3591499328613281,1.640946388244629,1.5770525932312012
1758301039617764600,11.9787646484375,-0.8747873902320862,1.5188755989074707,1.1550614833831787
1758301039627738600,11.988738525390625,-1.2771520614624023,1.323341727256775,0.652621865272522
1758301039637714000,11.9987138671875,-1.5278400182724,0.9618711471557617,0.1931900978088379
1758301039647688000,12.00868798828125,-1.4908517599105835,0.891835629940033,-0.2577674686908722
1758301039657662000,12.018661865234375,-1.2572160959243774,0.8160092830657959,-0.6016659736633301
1758301039667636000,12.028635986328124,-0.8830651640892029,0.8584146499633789,-0.840929388999939
1758301039677610800,12.03861083984375,-0.3960840702056885,0.7686133980751038,-1.0137593746185303
1758301039687584800,12.048584716796874,0.07479694485664368,0.5116012692451477,-1.1650768518447876
1758301039697558800,12.058558837890626,0.5358687043190002,0.2699878513813019,-1.2671403884887695
1758301039707532800,12.06853271484375,0.9070713520050049,0.034555066376924515,-1.3004710674285889
1758301039717507800,12.0785078125,1.0517534017562866,-0.2939935326576233,-1.2405115365982056
1758301039727481900,12.08848193359375,0.9895274639129639,-0.7594049572944641,-1.0470839738845825
1758301039737455900,12.098455810546875,0.9832855463027954,-1.1071754693984985,-0.6526690125465393
1758301039747430000,12.108429931640625,0.9580802917480469,-0.8304049968719482,-0.08874976634979248
1758301039757405000,12.118405029296875,0.8564950823783875,-0.20920667052268982,0.6362503170967102
1758301039767378700,12.128378662109375,0.7932335138320923,0.0019287216709926724,1.267562985420227
1758301039777352700,12.138352783203125,0.8700960278511047,-0.11426685750484467,1.365921974182129
1758301039787327700,12.14832763671875,0.9845185875892639,-0.5982198119163513,0.9732603430747986
1758301039797301800,12.1583017578125,0.950229823589325,-1.0851244926452637,0.2617945075035095
1758301039807275800,12.16827587890625,0.4395062327384949,-1.4625654220581055,-0.3039971888065338
1758301039817249800,12.178249755859374,-0.21165873110294342,-0.8163009285926819,-0.9335951209068298
1758301039827224800,12.188224853515624,0.0012940947199240327,-1.3347688913345337,-0.9037681818008423
1758301039837198800,12.19819873046875,0.14295747876167297,-1.9331244230270386,-0.22859929502010345
1758301039847172900,12.2081728515625,-0.08774399757385254,-2.152191638946533,0.36103421449661255
1758301039857146600,12.218146728515626,-0.512701690196991,-1.7765840291976929,0.3179767429828644
1758301039867121700,12.22812158203125,-0.9386640191078186,-0.9670441746711731,-0.24509429931640625
1758301039877095700,12.238095703125,-1.311983585357666,-0.9650643467903137,-0.48474711179733276
1758301039887069700,12.248069580078125,-1.487305760383606,-0.7618224620819092,-0.5936737656593323
1758301039897043700,12.258043701171875,-1.526530146598816,-0.6060217022895813,-0.552668571472168
1758301039907019000,12.26801904296875,-1.594836711883545,-0.6351526975631714,-0.5673063397407532
1758301039916993000,12.277992919921875,-1.6785744428634644,-0.7076393961906433,-0.6431081295013428
1758301039926966800,12.287966796875,-1.695231318473816,-0.7327871918678284,-0.6814342141151428
1758301039936941800,12.29794189453125,-1.575966477394104,-0.7095530033111572,-0.5860128402709961
1758301039946915800,12.307915771484375,-1.3115931749343872,-0.9270511269569397,-0.23328964412212372
1758301039956889900,12.317889892578124,-0.9559532403945923,-1.3342643976211548,0.2999764084815979
1758301039966864000,12.32786376953125,-0.5141376256942749,-1.6629419326782227,0.8969867825508118
1758301039976839000,12.3378388671875,-0.09934846311807632,-1.7811511754989624,1.3682866096496582
1758301039986813000,12.34781298828125,0.28285446763038635,-1.5665568113327026,1.4500278234481812
1758301039996787000,12.357786865234376,0.7370882630348206,-0.8846645355224609,0.9342473149299622
1758301040006761000,12.367760986328125,1.229644536972046,-0.07588521391153336,0.01392496656626463
1758301040016735700,12.37773583984375,1.5606706142425537,0.2503725290298462,-0.8950195908546448
1758301040026709800,12.387709716796875,1.6835427284240723,0.07734216004610062,-1.5289149284362793
1758301040036683800,12.397683837890625,1.6691834926605225,-0.17776362597942352,-1.8377057313919067
1758301040046657800,12.40765771484375,1.6813825368881226,-0.19759541749954224,-1.808234691619873
1758301040056632800,12.4176328125,1.599460244178772,0.07348694652318954,-1.4295071363449097
1758301040066607400,12.427607421875,1.2520509958267212,0.6165074110031128,-0.8843884468078613
1758301040076581000,12.4375810546875,0.5885286927223206,1.132285475730896,-0.25198835134506226
1758301040086556200,12.44755615234375,-0.3472219407558441,0.8135575652122498,0.4290253221988678
1758301040096530200,12.4575302734375,-1.501935601234436,0.9583485722541809,-0.03780444711446762
1758301040106504200,12.467504150390624,-2.433563470840454,2.360074043273926,-2.7966206073760986
1758301040116478200,12.477478271484374,-1.7897133827209473,0.41333967447280884,-4.7087297439575195
1758301040126453200,12.487453369140624,-0.06004219502210617,-2.156076669692993,-2.6359493732452393
