time,seconds_elapsed,z,y,x
1758301345000795600,0.049795654296875,-0.504081156271696,0.0755816029459238,0.4960533326387405
1758301345010768400,0.059768310546875,-0.45343058096468447,0.025915362501144408,0.5878950193814932
1758301345020742400,0.069742431640625,-0.2679080093532801,-0.3723720079123974,0.7661810638681054
1758301345030715400,0.07971533203125,-0.8643634979397058,-1.1231547193795441,0.3992489089220762
1758301345040689400,0.089689453125,-1.7297639377117155,-1.6832056001543998,0.6678868399851023
1758301345050662400,0.099662353515625,-1.843328942093253,-1.988734022849798,1.3042672194637357
1758301345060635600,0.1096357421875,-1.85495332891345,-1.3939385764300822,0.9973006537239998
1758301345070609700,0.119609619140625,-1.956812697932124,-1.0728367370277643,1.0027060929641127
1758301345080582700,0.129582763671875,-1.4506500592112541,-0.5694540844142436,1.1139286258727312
1758301345090556700,0.139556640625,-0.6548994942486286,0.619547610360384,1.372036541223526
1758301345100529400,0.149529296875,0.059279871964454646,1.477756385062635,1.510434665827453
1758301345110503400,0.15950341796875,1.1379413696229457,1.8412822386965155,0.9869196910936385
1758301345120476400,0.169476318359375,1.555530821877718,2.7071120097965,0.07102817742526531
1758301345130450400,0.179450439453125,1.9363111771732568,3.5143478453695773,0.04182553688175976
1758301345140423400,0.18942333984375,2.2170722383588553,4.241110214301943,0.4649890994744375
1758301345150397400,0.1993974609375,1.1928104394078254,3.2601354761525987,0.1717655566766858
1758301345160370700,0.20937060546875,-0.9563315875411033,1.3216545537248252,-0.15155454329699278
1758301345170343400,0.219343505859375,-1.4005518570899962,1.0579355204939842,0.7124075342349707
1758301345180317400,0.2293173828125,-0.614247165864706,0.7248562430500983,1.3075491637438534
1758301345190290400,0.23929052734375,0.35935762803852556,0.3447983568102121,1.4350935936391354
1758301345200264400,0.249264404296875,0.5448673401683569,-0.18527765693962572,1.2945587492674588
1758301345210237400,0.259237548828125,0.4397480925709009,-0.24665771605372427,0.19592749963924289
1758301345220211500,0.26921142578125,-0.3228483908087015,-0.18788696265518665,-1.8653429132416843
1758301345230184400,0.279184326171875,-0.8581400933802127,-0.915412132653594,-4.502480638580024
1758301345240158500,0.289158447265625,0.985398107549548,-2.1504761981621385,-6.2074780915647745
1758301345250131700,0.299131591796875,2.892963667231798,-3.520092818762362,-6.813646580392122
1758301345260105700,0.309105712890625,2.908637037181854,-4.591470881414414,-5.857072416266798
1758301345270078500,0.319078369140625,1.383332426741719,-5.097692556846141,-3.855705998598039
1758301345280051500,0.329051513671875,0.8039385475933551,-3.9250685808986425,1.6091905158728361
1758301345290025500,0.339025390625,0.7972370041280984,-1.6343901313200593,6.298866919973492
1758301345299998500,0.34899853515625,-0.9727712656885384,-0.7160396071270108,4.863827394609153
1758301345309972500,0.358972412109375,-2.6418402039408684,0.47546325681358576,2.0620506034731862
1758301345319945500,0.368945556640625,-2.8884873986005783,1.7762632385581731,0.989920845670998
1758301345329919500,0.37891943359375,-1.8734522776782512,0.934854792009294,0.12734598471373318
1758301345339892700,0.388892822265625,-1.9607804325193166,-3.195206200124323,-2.349929679970443
1758301345349866800,0.39886669921875,-0.754368753260374,-4.688445693261921,-2.8094851735562085
1758301345359839500,0.408839599609375,0.08336626547276973,-5.685967077064514,-2.1267367183953523
1758301345369813000,0.41881298828125,-0.6966501392632722,-7.341730543541908,-0.3715641986608505
1758301345379787000,0.428787109375,-0.1809434271275997,-8.43383662918508,1.7313202272430062
1758301345389760000,0.438760009765625,0.16162556319534777,-8.049238176906108,2.652980022114515
1758301345399734000,0.448734130859375,-0.8046370512515306,-8.368424538075923,2.616543265599012
1758301345409707000,0.45870703125,-2.8500089071244,-8.658634980130195,2.3643097952395675
1758301345419681000,0.468680908203125,-3.9031484255135056,-8.020258750659227,1.2835983793139456
1758301345429653800,0.47865380859375,-3.7506250371843572,-8.06102330724597,0.8254840244472026
1758301345439627800,0.488627685546875,-3.1371091082036493,-8.582060274493694,0.8682920695602894
1758301345449601000,0.49860107421875,-2.366169159370661,-9.02258168952465,1.7554829008579254
1758301345459574000,0.508573974609375,-2.194924119436741,-9.656711951988935,1.9473229850530622
1758301345469548000,0.518548095703125,-1.4645371302664278,-9.684542792722583,1.6455577142834663
1758301345479521000,0.52852099609375,-0.17731705332398415,-9.109605892983078,0.7350806999444961
1758301345489495000,0.5384951171875,0.7853057433158159,-8.751738211241364,-0.17132511943280695
1758301345499468000,0.548468017578125,1.3401198924809694,-8.135088075888156,-0.02178571535050869
1758301345509442000,0.558442138671875,1.2517851909458637,-7.113438505262136,0.07306698977649212
1758301345519414800,0.568414794921875,0.906109466779232,-5.822161846405267,-1.1760007589042185
1758301345529388800,0.578388916015625,0.49868601922988887,-3.791338740366697,-3.3609225397646427
1758301345539362000,0.588362060546875,1.367556765460968,-2.7953222081691025,-4.865290745159983
1758301345549335000,0.5983349609375,2.2939929809540507,-1.9078557748004794,-5.8849067641317845
1758301345559309000,0.60830908203125,2.133202699539065,-0.7361448220446706,-5.635380799165368
1758301345569282000,0.618281982421875,3.05763985016942,-0.33241467605531216,-5.505228817120194
1758301345579256000,0.628256103515625,4.243006987833977,1.2156330965906381,-6.659456720155477
1758301345589228800,0.638228759765625,4.9915048032343385,1.8437801929920912,-7.555788889285922
1758301345599202800,0.648202880859375,6.132143156856298,3.026197833201289,-9.85791724590063
1758301345609175800,0.65817578125,7.22038964446187,3.084782124117017,-11.265055495643615
1758301345619149800,0.66814990234375,8.600300864583254,3.0487896042376756,-10.962551389205455
1758301345629123000,0.678123046875,7.88541422688365,3.5958038933068512,-9.926080681544542
1758301345639096000,0.688095947265625,5.952395076993107,3.237432353696227,-7.798049831685423
1758301345649070000,0.698070068359375,3.7686630904391407,3.3515596681356428,-4.574667630651593
1758301345659043000,0.70804296875,3.1581536497980354,3.4733991643875837,-3.1042069555550813
1758301345669017000,0.71801708984375,3.331369405283034,3.745049867400527,-7.167522562149166
1758301345678989800,0.72798974609375,4.197646043367683,4.995626267078519,-13.557743239217995
1758301345688963800,0.7379638671875,2.734626916448772,5.148809580621123,-12.435705541169643
1758301345698936800,0.747936767578125,-1.58194448928982,3.2079046459168192,-3.2140573233276606
1758301345708910800,0.757910888671875,-6.732108699390292,0.4631850822597742,-1.8935878877341745
1758301345718884000,0.767884033203125,-8.973299479961394,5.358008211374282,-7.999996299353241
1758301345728857000,0.777857177734375,-8.12056972119212,6.394167368867993,-6.038218672490119
1758301345738831000,0.7878310546875,-7.598534975078701,3.485906179261207,-3.20753055190742
1758301345748804000,0.79780419921875,-5.488230336046218,1.6430378404170274,-0.46177346189618107
1758301345758777900,0.80777783203125,-2.8939696294039488,0.20615444075167177,0.2598193954437971
1758301345768750800,0.817750732421875,-0.43885318955779073,-0.23858196162581444,0.7890151192277669
1758301345778724900,0.827724853515625,0.22477993850558994,-0.446941218945384,2.2868021926671265
1758301345788697900,0.83769775390625,0.1325119891747832,-0.4268365885496139,3.108142541438341
1758301345798671000,0.847671142578125,1.634649951300025,0.46065585604310033,0.39284488709867
1758301345808645000,0.85764501953125,2.3709116777226327,1.1497218237876892,-1.2205325590699911
1758301345818618000,0.8676181640625,1.6512398515731095,0.6183429107457399,2.793803035777807
1758301345828592000,0.877592041015625,1.2502201335862277,-0.09542729014456272,6.8437284149229525
1758301345838564900,0.88756494140625,1.2867416457757352,0.641433278954029,1.6815888126075267
1758301345848539000,0.897538818359375,3.1349247499018906,1.185772795855999,-1.858336541610956
1758301345858512000,0.907511962890625,2.7458476909041405,2.0341572188973425,-3.466611696204543
1758301345868486000,0.91748583984375,-0.33964141243845225,2.9058506213337183,-6.234878139665723
1758301345878459000,0.927458984375,-1.630572911119461,2.600533795562386,-4.935391286346316
1758301345888433000,0.937432861328125,-1.795843845079839,1.7133260131299495,-3.4731472354531285
1758301345898406100,0.94740625,-0.5260413514062762,0.09977730204761028,-2.3299767330050467
1758301345908379100,0.957379150390625,1.689423159494996,-0.6459042868882418,-1.1585972041606902
1758301345918353200,0.967353271484375,0.7308999071285128,0.15734803200662134,-1.9065315404593943
1758301345928326000,0.977325927734375,0.17110417015850543,0.4273170655429363,-0.4091927953094244
1758301345938300000,0.9872998046875,-1.045854037556052,0.5277718284606934,0.21982348514199257
1758301345948273000,0.99727294921875,-3.3574756141811606,0.6432207468926906,-0.042909167400002474
1758301345958247000,1.007246826171875,-5.644426275408268,0.9554951367169618,-1.0136205779492855
1758301345968220000,1.017219970703125,-2.4053233581513167,0.3729945237249136,-1.2804711872041226
1758301345978194000,1.02719384765625,-2.512842068105936,-0.16043839923739434,-2.7684517369002104
1758301345988167200,1.037167236328125,-2.1611735332652926,0.14050444923341274,-3.19773922573328
1758301345998140000,1.047139892578125,-0.05619330412596464,-1.1154548125267028,-2.314989591753483
1758301346008114000,1.057114013671875,0.2683870250418782,-2.237072239336371,-1.839552346163988
1758301346018087000,1.0670869140625,0.9330787222474813,-2.390820785546303,-0.9345037866145371
1758301346028061000,1.07706103515625,1.815040420719981,-2.3008125978410243,-0.9622142158389091
1758301346038034000,1.087033935546875,2.709838804411888,-2.6023668562084437,-1.490962195855379
1758301346048008000,1.097008056640625,3.236453279531002,-3.091953623181581,-1.3298176941752433
1758301346057981000,1.10698095703125,3.2848540300846096,-3.077196783554554,-0.9990040235757827
1758301346067955000,1.116954833984375,3.295801248295605,-2.7076222974061963,-1.01262338360548
1758301346077928200,1.12692822265625,2.9025395970895884,-2.3297587063401934,-0.7278916652232408
1758301346087901000,1.13690087890625,3.121857763057947,-2.625114694589376,0.5360854832977057
1758301346097875000,1.146875,3.477152379441261,-3.2273581189274787,1.7212059527248142
1758301346107848000,1.156847900390625,3.147397570244968,-3.283708951702714,2.266491226044297
1758301346117822000,1.166822021484375,2.883309119179845,-2.844863360929489,2.4459037903428076
1758301346127795000,1.176794921875,2.5433582024008032,-1.9643314029991625,1.7774153312027454
1758301346137769000,1.18676904296875,0.8975468056172132,0.2459995444059372,-0.1172784719467163
1758301346147742000,1.196741943359375,-2.5192493047997355,3.986488972023129,-3.437757942163944
1758301346157716000,1.206716064453125,-1.5903738794609903,5.224499320116639,-1.8046277477771042
1758301346167689000,1.21668896484375,-0.1299532446026802,4.6279725198596715,0.9276058437943459
1758301346177662000,1.226661865234375,-1.655924209997058,5.506100339257717,0.050882630497217175
1758301346187636000,1.236635986328125,-3.5181665268748996,7.697270659118891,-0.13581716820001602
1758301346197609000,1.24660888671875,-0.7695622307389974,6.617385172623395,0.9840770880788564
1758301346207583000,1.2565830078125,2.7722596047505736,4.651355733534693,0.6356424205929041
1758301346217556000,1.266555908203125,2.849918890753388,2.992900543755293,1.2683704150438309
1758301346227530000,1.276530029296875,0.9555962590038776,-0.1591156262010336,0.6414087290346622
1758301346237503000,1.2865029296875,0.1280906656011939,-0.20891747572422026,-0.8301753971338272
1758301346247477000,1.29647705078125,0.2880009493112564,3.0745734493136405,1.796968757456541
1758301346257450000,1.306449951171875,-2.268148930123448,2.6730957584261894,2.773363474339247
1758301346267423000,1.316423095703125,-3.1130750294044613,-1.186742517670989,2.4410826537966726
1758301346277397000,1.32639697265625,-0.7689145804852247,-1.557343424257636,2.3416806148022413
1758301346287370000,1.336369873046875,-1.28508248039186,-1.077613449910283,2.6321803951919076
1758301346297344000,1.346343994140625,-1.2801637286901473,0.3991898722112179,2.085349061474204
1758301346307317000,1.35631689453125,-0.7013773139156401,1.9500942033320665,2.6740374231904744
1758301346317291000,1.366291015625,-0.4725292491883039,2.7809745338648555,2.339614914444089
1758301346327264000,1.376263916015625,-0.3493254788458347,3.263065392124653,2.3062357919335366
1758301346337238000,1.386238037109375,0.31287995450198647,2.7723452372074124,2.27070095269382
1758301346347211000,1.3962109375,0.24487375524640081,2.1373089658141136,1.9835306089878082
1758301346357184800,1.406184814453125,-0.1741331625908613,2.3027444426864383,1.5504665242254734
1758301346367157500,1.416157470703125,-0.5932208905793727,3.7245892631739377,1.3267629827797411
1758301346377130200,1.426130126953125,-1.0012222841471432,4.569509809496998,0.8549959501355886
1758301346387104300,1.436104248046875,-0.020856910067796705,2.94268076108098,0.5984042845666409
1758301346397077200,1.4460771484375,1.6129760257609187,-0.9181541248381138,0.3565408170521259
1758301346407051300,1.45605126953125,0.9853928468525409,0.6993985611885786,0.6790706434309483
1758301346417024300,1.466024169921875,1.2034837360482662,2.606115979608893,-0.47240533054769035
1758301346426998300,1.475998291015625,1.3331366094648838,1.8373942913472652,-2.1082430303275586
1758301346436971500,1.485971435546875,-0.6399708051860332,2.1833073314011098,-2.786616923666
1758301346446945500,1.495945556640625,-0.10104922167956829,2.049197551640868,-2.41160170776844
1758301346456918300,1.505918212890625,-1.1627187410701065,0.8716150765031576,-1.6330185507059096
1758301346466892300,1.515892333984375,-1.1056833600968121,0.7584200744777917,-0.9623433951765298
1758301346476865300,1.525865234375,-0.30522914748787877,0.9227057967931032,-1.0174006810098886
1758301346486839300,1.53583935546875,0.7128950985562056,0.675492200422287,-1.1980232056200504
1758301346496812300,1.545812255859375,1.6703133853554724,-0.1242103170365095,-1.7103005278289316
1758301346506786300,1.555786376953125,1.6765332827836275,1.6758733575701712,-5.901915766599774
1758301346516759300,1.56575927734375,1.9754571926474571,3.0297143168896437,-6.236380945444107
1758301346526732500,1.575732666015625,-0.24780571704506874,1.3026385953485966,-2.112204919695854
1758301346536706600,1.58570654296875,0.7175690817166119,-0.14907763178944586,1.734267094349861
1758301346546679300,1.59567919921875,2.7897219039440153,-6.009540275016427,1.9111568621724844
1758301346556653300,1.6056533203125,-1.8863988530129192,-2.465446695202589,8.240655067253112
1758301346566626300,1.615626220703125,-0.5130266792714595,-0.4603752855360508,6.32304216080904
1758301346576600300,1.625600341796875,2.6743063032597303,-2.189046751835942,2.2884803550124166
1758301346586573300,1.6355732421875,2.9159172573179006,-4.832200960984826,0.6216150642842054
1758301346596547300,1.64554736328125,1.3857488402336835,-3.139640672507882,-0.177802206492424
1758301346606520300,1.655520263671875,-1.1992132921874523,-1.6485399449646472,-0.09317162017226219
1758301346616494300,1.665494384765625,-3.1467771002590657,-1.1389414865761995,-1.2139648711174726
1758301346626467600,1.675467529296875,-0.10638473748862742,1.449074188196659,-11.152556074666975
1758301346636441300,1.68544140625,-0.7727006018299609,3.476524018409848,-8.024660785010457
1758301346646414300,1.695414306640625,-1.8937649978667497,2.079600580950081,-3.041145226964354
1758301346656388400,1.705388427734375,5.79966476791501,-0.02028466313779354,0.7014122390985489
1758301346666361300,1.715361328125,3.239380565154552,-1.8938783951133489,-0.2735533217638731
1758301346676334300,1.725334228515625,0.8803425728380679,-0.34317923117578025,-2.368139582660794
1758301346686308400,1.735308349609375,0.761931297469139,1.3274109252944588,-3.4277047501832243
1758301346696281300,1.74528125,-1.133714691838622,1.5655319914102552,-5.381722264438867
1758301346706255400,1.75525537109375,-2.3003695302486418,1.4198694287613034,-5.896654485070705
1758301346716228400,1.765228271484375,-2.3647177915185686,1.0960568690955639,-5.811231871590018
1758301346726202400,1.775202392578125,-2.841248677563667,0.9168117703184485,-5.019142167222499
1758301346736175400,1.78517529296875,-1.7585658154346049,-0.10461860459893942,-2.2791683367878197
1758301346746149400,1.7951494140625,-1.9847518213458357,-0.6065791154548525,-0.3615945933103561
1758301346756122400,1.805122314453125,-1.2496961097121237,-1.6907941555872559,3.574159047731757
1758301346766096400,1.815096435546875,0.0010632453173398972,-2.5442493060216305,4.232377457270026
1758301346776069400,1.8250693359375,2.447791649916023,-2.485605393873155,4.12863768133223
1758301346786043400,1.83504345703125,1.9462129779845474,-2.3345476941823957,8.198090183246135
1758301346796016400,1.845016357421875,0.22792612757682798,-1.84892018622905,12.647412355351447
1758301346805990400,1.854990478515625,0.973863152578473,-0.7433928934767842,9.36206791140139
1758301346815963400,1.86496337890625,2.545308167424798,-0.5740367360293865,1.779385169970989
1758301346825937200,1.874937255859375,1.4928510783419011,0.38939679247140885,-0.6848743612736463
1758301346835910400,1.884910400390625,-0.09658420509472489,1.2129238376319407,-0.8782493999511003
1758301346845884400,1.894884521484375,-0.8797188879817723,1.1473381435215473,-1.7570897515326738
1758301346855857400,1.904857421875,-2.6309271802604197,1.1687810367837548,-3.30437998380959
1758301346865831400,1.91483154296875,-1.138700809688121,0.39034284114986656,-4.067199754551053
1758301346875804400,1.924804443359375,3.3303365551039574,-0.753384126137197,-3.847456348907947
1758301346885778400,1.9347783203125,5.016061152341962,-0.7089163311183452,-4.85371487365663
1758301346895751200,1.944751220703125,3.5695740580290556,-0.26018238353729245,-5.918748827978968
1758301346905724200,1.95472412109375,1.309755587746948,-0.32608225816339254,-7.358084296971559
1758301346915698200,1.9646982421875,-0.5454542001456022,-0.24087796360850333,-7.286181090277433
1758301346925671400,1.97467138671875,0.32699425844177604,-2.4620307492792604,-8.316221472629904
1758301346935645400,1.9846455078125,2.2591168978840113,-3.5126071391820903,-8.53698779157996
1758301346945618400,1.994618408203125,-1.8106126674056051,-2.133508989009261,-2.8495857132762668
1758301346955592400,2.004592529296875,1.2246145676866174,-3.512304649104178,-2.8090725011020896
1758301346965565400,2.0145654296875,3.2293203589111563,-3.8309506197869774,-2.0362509763062
1758301346975539500,2.02453955078125,2.649671628218889,-2.798772933144867,-0.06783727242946624
1758301346985512200,2.03451220703125,1.021167340067029,-1.685784218470752,4.878479897078871
1758301346995486200,2.044486328125,1.2319476870536803,-1.9152000000834464,5.738733037090301
1758301347005459200,2.054459228515625,1.3697747337713837,-1.8694637925639748,6.088663496091962
1758301347015433200,2.06443310546875,0.28152532355636356,-1.6604525010764597,5.494980394828319
1758301347025406500,2.074406494140625,0.18815262785404918,-1.740546320749819,4.5232308734029525
1758301347035380500,2.08438037109375,-0.20267069028913973,-1.014766533114016,4.253027446588874
1758301347045353500,2.094353515625,-2.225291785171628,0.8430228960081935,2.035129278799891
1758301347055327500,2.104327392578125,-0.9788847801327705,1.318078156542778,2.220411027392745
1758301347065300500,2.114300537109375,-1.1009954945415257,2.202523488524556,2.1522756487995385
1758301347075274500,2.1242744140625,-0.7840560355156659,3.2709508846774695,2.3635785583555697
1758301347085247200,2.134247314453125,-0.3885290697261691,3.394906057909131,2.8031232373088595
1758301347095221200,2.14422119140625,-0.5827461121857166,3.2890912292629477,2.9510943691611287
1758301347105194200,2.1541943359375,0.2712602423906326,3.565316400584578,2.175474738079309
1758301347115168300,2.164168212890625,0.8770996453940868,2.9479578247010707,0.3292459828913212
1758301347125141500,2.1741416015625,0.53507016877532,2.2520316157981752,-0.46250586782395836
1758301347135115300,2.184115234375,-0.546802984406054,0.9575237199351191,-1.326297118833661
1758301347145088500,2.194088623046875,-0.616220219503343,0.9498550850033759,-1.44101538490355
1758301347155062500,2.2040625,0.22299568543732165,1.0648074520900845,-0.3206622789412737
1758301347165035300,2.21403515625,-0.5407207418829202,0.25018355209231374,0.7310323013365269
1758301347175009300,2.22400927734375,-0.122141109547019,-1.8301929816663265,0.7096651036590337
1758301347184982300,2.233982177734375,-0.12883154709637165,-2.903901240831613,0.6981506069540977
1758301347194956300,2.243956298828125,-0.35494068837910886,-2.173057740065455,1.0093851323366165
1758301347204929300,2.25392919921875,-1.073689262203872,-2.457298460060358,0.5724006592601537
1758301347214903300,2.2639033203125,-1.0492167919874191,-2.4814123260974883,0.31067689149975775
1758301347224876300,2.273876220703125,-1.2296402868941425,-2.3686902022808787,0.2863789010673761
1758301347234850300,2.283850341796875,-1.4848741081133483,-1.8034212945967911,0.7645411877065896
1758301347244823600,2.293823486328125,-1.7854218197867273,-0.9410141914218664,1.105713755235076
1758301347254797600,2.303797607421875,-1.7225439233303068,-0.12191197696626185,2.2670026826977727
1758301347264770300,2.313770263671875,-1.0859490243181587,0.36839375193119045,2.651931974366307
1758301347274744300,2.323744384765625,-0.7471656900137662,0.835274766099453,2.840760601785779
1758301347284717300,2.33371728515625,-0.24012334584891795,1.3279893097043036,3.0361282755851744
1758301347294691300,2.34369140625,0.7367951026469468,0.914550547388196,2.9877403845131396
1758301347304664300,2.353664306640625,1.9749714549571276,0.027847791868448254,2.335619707328081
1758301347314638300,2.363638427734375,2.008558667260408,-0.3178518976956606,1.3297896371245383
1758301347324611300,2.373611328125,0.9766562904283403,-0.33735973124206065,0.7566542338490486
1758301347334585300,2.38358544921875,-0.25126433306634427,0.8061533010333776,0.8395540508538484
1758301347344559400,2.393559326171875,-1.2288424145147203,1.2907728009879589,1.7025404152214527
1758301347354532400,2.403532470703125,-0.9949597166210412,0.94490535364151,1.6538889047771692
1758301347364507100,2.413507080078125,-0.4867471596330404,0.7269201898425817,1.7671926278740167
1758301347374480100,2.423480224609375,-0.10712123506963252,0.991373674827814,2.4393647439628836
1758301347384454000,2.433453857421875,-0.15772212601602076,1.1037930163055658,2.195999055191874
1758301347394427100,2.44342724609375,-0.6180810449391603,1.364430742394924,1.668176957848668
1758301347404401200,2.453401123046875,-1.2292923502393067,2.087417099919915,1.7667618352413177
1758301347414374100,2.4633740234375,-1.7385237288810311,2.666300106936693,3.2201819436877965
1758301347424348200,2.47334814453125,-1.632844363182783,2.7826924436986444,5.755597662651539
1758301347434321200,2.483321044921875,-0.6211182206779718,2.3090292220443485,8.286474569141864
1758301347444295200,2.493295166015625,2.065234494206309,1.5245780497312544,4.987681445553899
1758301347454268200,2.50326806640625,4.354458945584297,1.464706641614437,-3.7084009294390676
1758301347464242000,2.513241943359375,2.9845155772477385,2.578226686686277,-10.228927317810058
1758301347474215000,2.52321484375,-1.6811792088933288,3.5471307555526495,-5.780564346125722
1758301347484189000,2.53318896484375,-3.438532433667779,2.2365274649351834,-1.339206869289279
1758301347494162200,2.543162109375,-2.7228292188882826,0.8668354410111904,-1.3607389021396636
1758301347504136200,2.55313623046875,-3.268244256067276,0.20209142909646033,-2.2880858027368784
1758301347514110200,2.563110107421875,-2.6088854443222282,-0.7610650360286235,-3.486988129279017
1758301347524083200,2.573083251953125,-2.085162014469504,-1.9675673161804674,-3.878596752581
1758301347534057200,2.58305712890625,-2.412021394485235,-2.6341297756940123,-3.017847938007116
1758301347544030200,2.5930302734375,-3.098276980984211,-1.7242916437804698,-1.3892425275683402
1758301347554004200,2.603004150390625,-3.686646778270602,-0.08150105612277984,0.19370821615457534
1758301347563977000,2.61297705078125,-3.3069261611610647,1.8201508956015109,1.812436960223317
1758301347573951000,2.622950927734375,3.901314195823669,-0.4289911362349987,-1.9666993011742828
1758301347583924000,2.632924072265625,5.073156081482768,-3.442818148162961,-0.9400105673372745
1758301347593898000,2.64289794921875,-2.2552947092473508,-2.7824855229496954,0.9782862297177314
1758301347603871200,2.652871337890625,-1.8542225304208695,-2.700420987725258,-1.374373459738493
1758301347613845000,2.662844970703125,0.10198854835629463,-3.04907952709496,-2.05868726451993
1758301347623818200,2.672818359375,2.4308722254276276,-4.65643581327796,-2.4868413654088974
1758301347633792300,2.682792236328125,4.676828612965345,-4.503548267811537,-1.5601438686311244
1758301347643766300,2.692766357421875,2.524281746008992,-4.4494040051698684,-3.021891660439968
1758301347653739300,2.7027392578125,2.425412790977955,-3.4915234346210955,-3.666784139937162
1758301347663713300,2.71271337890625,1.561150853716582,-0.6625012014240026,-2.2509680782198904
1758301347673686000,2.72268603515625,-1.6324977417021989,1.0882394733428955,-2.5559236694633958
1758301347683660000,2.732659912109375,-1.7480132956296204,-1.2176882755547762,-2.661694074445963
1758301347693633000,2.742633056640625,0.9734317023586482,-2.5971125889420508,-0.6128524966359138
1758301347703607000,2.75260693359375,2.6314351297825573,-4.486007934945821,0.9592600422084331
1758301347713580000,2.762580078125,2.931532175078988,-5.091985869637131,2.172092109903693
1758301347723554000,2.772553955078125,0.848307266151905,-3.54341787250936,0.5251049473389983
1758301347733528000,2.782528076171875,-1.3953776693224906,-2.368873157632351,-1.3678262300521133
1758301347743501300,2.792501220703125,-2.583322548520565,-2.154121568927169,-2.5858482676059005
1758301347753475000,2.80247509765625,-0.8079203837711364,-1.5044675741165876,-0.9857181332841515
1758301347763448000,2.812447998046875,-0.633011560632661,0.24649288088083265,0.45595133161395784
1758301347773422000,2.822422119140625,-0.22194873366765677,2.1196850463181733,1.4244260691523551
1758301347783395000,2.83239501953125,0.37146139587350185,2.576097857964039,2.7350588781252503
1758301347793369000,2.842369140625,0.7473451382339,2.5534663394391535,3.1103534954860805
1758301347803342000,2.852342041015625,1.0211176557064057,2.2375772662490605,2.825188938644528
1758301347813316000,2.862316162109375,1.5826491304278372,1.5682856740325688,1.8967200482800601
1758301347823290000,2.8722900390625,1.801767682170868,1.115696804589033,0.8319239943668246
1758301347833263000,2.88226318359375,1.6048703145861625,1.3093231876790523,-0.22121698532700537
1758301347843237000,2.892237060546875,1.377349845200777,1.4527192667007445,-1.0967854756310582
1758301347853210000,2.902210205078125,1.3204793724656105,1.1559972507953644,-1.2757514652058481
1758301347863184100,2.91218408203125,1.0474258169174193,0.5305225884735584,-1.1922989827543495
1758301347873157000,2.9221572265625,0.26510635940339417,0.6397405035614967,-0.7942764007568359
1758301347883131100,2.932131103515625,-0.5173661697804928,0.8477168990433216,-0.29557021552175283
1758301347893104000,2.942104248046875,-0.336939460003376,0.7581815895467996,-0.30735213099122044
1758301347903078100,2.952078125,0.4306599462300539,0.3896639189749956,-0.07122808391153812
1758301347913052200,2.96205224609375,0.42782033888995646,0.013445172506570815,0.5983361877664923
1758301347923025200,2.972025146484375,-0.2588344760596752,-0.620500381040573,1.2035042673796414
1758301347932999200,2.981999267578125,-1.0199930355906486,-1.8207833482861517,2.341987488794327
1758301347942972200,2.99197216796875,-0.9017670536607504,-2.786643227151036,2.8332997643858193
1758301347952946200,3.0019462890625,0.21177279209010302,-3.2235049506306646,1.522960093140602
1758301347962919000,3.0119189453125,1.1731132207691668,-3.3986627800941465,0.5063619606852531
1758301347972893000,3.021892822265625,1.5336398925870656,-3.18265154671669,1.400516785776615
1758301347982867000,3.031866943359375,0.3849876707922667,-2.4434464603185653,2.709096461611986
1758301347992840000,3.04183984375,-0.21323833459801972,-1.794298076942563,2.868103366741538
1758301348002814000,3.05181396484375,0.3072673753172159,0.27873803092539307,1.2294932796388864
1758301348012787200,3.061787109375,1.2139164288658648,1.8321920465290544,1.6804875733673572
1758301348022761200,3.07176123046875,1.2886597543567417,4.207465718853474,2.6048347076267
1758301348032734200,3.081734130859375,-0.6706091776210814,8.166179379722475,1.5585621523976325
1758301348042708200,3.091708251953125,-0.7014221759706735,10.576462990629672,0.3506552661448717
1758301348052682200,3.10168212890625,-0.6358417425572872,10.920033266949654,0.5080062207609415
1758301348062655200,3.1116552734375,-0.7753998508512974,10.27489645730257,0.013154080605506897
1758301348072629200,3.121629150390625,-0.5333505784410983,8.367603869342803,0.5911497833937406
1758301348082602000,3.13160205078125,-0.49368879546448585,6.594603431972861,0.39446693534255023
1758301348092576000,3.141575927734375,-0.34598011394068595,5.014319277110696,-0.6318868674516678
1758301348102549000,3.151549072265625,-0.050287075756862754,3.8711195485681293,-0.38379064302742477
1758301348112523000,3.16152294921875,0.7635872479826211,2.4744155990779397,0.7247521981537342
1758301348122497000,3.1714970703125,1.3366922561198473,1.2756909671902656,1.347556179961562
1758301348132470000,3.181469970703125,0.9990004433792083,1.0552975732058285,2.104881444939971
1758301348142444000,3.191444091796875,0.6211649824291468,0.43981589711010455,2.419437223699689
1758301348152417300,3.201417236328125,0.9519231234490871,-1.0847469550520181,2.0055483795285225
1758301348162391300,3.211391357421875,0.6642739832501858,-1.5080354957312345,2.1368431018680334
1758301348172365300,3.221365234375,0.2139011093556881,-1.534391003215313,0.9433101934045552
1758301348182338000,3.231338134765625,-0.24314342432245611,-1.5131044695585965,-0.38351708678305146
1758301348192312000,3.24131201171875,-0.11228438998647033,-1.3593389722138642,-2.028961988341808
1758301348202285000,3.25128515625,-0.22201617288067935,-0.8903963493406772,-2.9278555323928592
1758301348212259000,3.261259033203125,-0.71081441982463,-0.2718038477480411,-2.724542452546954
1758301348222232000,3.271232177734375,-0.31077158404588695,0.37155835344195365,-2.5707927372932433
1758301348232206000,3.2812060546875,0.07438289468064904,0.5685381386131048,-2.4111682847872373
1758301348242180000,3.29118017578125,-0.15635887483879923,0.7730857286900281,-2.092410085901618
1758301348252153000,3.301153076171875,-0.3127204530913383,1.0325655169159174,-1.7397680298537015
1758301348262127000,3.311127197265625,-0.23159239499941467,1.3906786978513002,-1.70751557328552
1758301348272100000,3.32110009765625,-0.30744799258112904,1.6745634440153836,-2.0634189692169427
1758301348282074000,3.33107421875,-0.5529249744176864,1.9037077152103186,-1.5760276664614676
1758301348292048100,3.341048095703125,-0.9456044418215751,0.30836686099171634,-0.970021382458508
1758301348302021000,3.351021240234375,-0.5175012674022466,-1.5978589745193719,-0.4971531105741858
1758301348311995100,3.3609951171875,-1.209984934635833,-1.675321568906307,-1.3856263828977942
1758301348321968000,3.370968017578125,-1.4862275685489177,-0.5771873090147972,-1.8354077937051654
1758301348331942100,3.380942138671875,-2.1515426583498716,1.6696721648424864,-2.8194799133479593
1758301348341915100,3.3909150390625,-0.6728086604267358,0.24576573565006254,-1.995533765992522
1758301348351889200,3.40088916015625,-1.2623954322874544,0.8540881876409053,-0.7157619592294097
1758301348361863200,3.41086328125,0.4275882836997509,1.1504057143986224,-2.596472537472844
1758301348371835400,3.42083544921875,0.9575333645462989,-5.169297657376528,-1.9523951737508176
1758301348381809400,3.430809326171875,-1.534534211078286,-6.271649242702126,1.6535791081756352
1758301348391782400,3.440782470703125,-2.1315403192847966,-7.188973346456885,1.7596581407159566
1758301348401756400,3.45075634765625,-1.4232774836391209,-7.2839680904030795,-0.23214345301091668
1758301348411730400,3.46073046875,-0.7462609231937676,-7.463600434932112,-1.925295862162113
1758301348421703700,3.47070361328125,-1.1569313167750834,-6.239556068348884,-2.6148233099386093
1758301348431677700,3.480677734375,-0.8086684987246989,-4.7840392798841,-3.5275121551081536
1758301348441650700,3.490650634765625,-0.5791092900533229,-4.109076071771979,-2.238921374334395
1758301348451624700,3.500624755859375,0.23301731323599814,-4.154903756967187,-1.2763140675246716
1758301348461598700,3.5105986328125,0.7671446482032537,-3.8159371750503777,0.12309621831476687
1758301348471571500,3.520571533203125,1.1405874271523206,-1.2023130117684602,-0.31347295195907354
1758301348481545500,3.53054541015625,0.39915772350728507,-2.1660241881668565,-2.578759186127782
1758301348491518500,3.5405185546875,2.795354941394925,-1.2749310887336731,-0.26976941931098697
1758301348501492500,3.550492431640625,5.118718393740058,0.3738824124753475,2.696043503293395
1758301348511465500,3.560465576171875,3.700244510990381,0.46072015345096584,1.8326073493316768
1758301348521439500,3.570439453125,0.9840536341380327,-0.0012327566653490066,1.1616145061552523
1758301348531413500,3.58041357421875,-1.214432488629222,0.9001403292417526,1.6183371144026517
1758301348541386500,3.590386474609375,-0.324338483235985,0.10046411526799201,1.6807944473594427
1758301348551360500,3.600360595703125,0.45862113534510135,-1.3394418470889329,1.649331095342338
1758301348561334500,3.61033447265625,0.7303272948723286,-1.8454338054180144,1.176203295738995
1758301348571307500,3.6203076171875,0.9320346930872648,-0.951636123201251,0.4479844443880021
1758301348581281500,3.630281494140625,0.3290489990144968,0.5607406166046858,-0.20872429123967884
1758301348591254500,3.640254638671875,-0.6510825663089752,0.4457154765427112,-0.1026418976984918
1758301348601228500,3.650228515625,-1.1297522179484367,-1.2686153297156095,0.2921237283296883
1758301348611202600,3.66020263671875,-0.19687164862155912,0.08855798889696598,0.8833478921338915
1758301348621175600,3.670175537109375,0.35372349460907276,0.24769524240791796,-0.20885449349060653
1758301348631149600,3.680149658203125,0.49874505594074725,-0.6913432650268078,-0.5099085472509265
1758301348641122600,3.69012255859375,0.09838972014673053,-0.09019698827564716,0.32922026392817494
1758301348651096600,3.7000966796875,-0.14079437209069728,1.4973317308872938,1.0837173197433352
1758301348661069600,3.710069580078125,-0.20228432132005691,2.2579186280101537,0.9045321344599128
1758301348671043600,3.720043701171875,-0.0018389789301902055,2.46561269941926,0.3874693315401673
1758301348681017300,3.730017333984375,-0.02664082723148167,1.9103870468437671,0.13482041224762797
1758301348690990300,3.739990234375,-0.10445705736167728,1.7007085236191748,0.5286980033949017
1758301348700964400,3.74996435546875,-0.0025083295591175553,2.0201251864135266,0.7743076717004179
1758301348710938400,3.7599384765625,0.11999532968997954,2.0314730943799018,0.7285600660040974
1758301348720911600,3.76991162109375,-0.07723996461220085,1.9676438885480165,1.0208990445196628
1758301348730885600,3.7798857421875,-0.3441800057161599,2.2888930274665356,1.3576330450788139
1758301348740858600,3.789858642578125,-0.3749409816175699,4.609747711861133,1.9543093368090687
1758301348750832600,3.79983251953125,-0.8110475758809595,8.566676827400922,1.8871720293425023
1758301348760806700,3.809806640625,-1.3031255020827055,10.163776507985592,0.6727437784969806
1758301348770779600,3.819779541015625,0.12489997980110347,9.052660016924142,-0.11384119097441434
1758301348780753700,3.829753662109375,0.7231734045296907,6.065221830227971,0.44300300271362064
1758301348790726400,3.839726318359375,0.18956044882535933,3.353893079519272,0.7382290809728205
1758301348800700400,3.849700439453125,0.6939245867568999,1.0651064350366592,0.8668718274988233
1758301348810674400,3.85967431640625,0.5388667115140706,-0.6272673909574746,1.4996718642726539
1758301348820647400,3.8696474609375,0.6997048506587743,-2.851286087453365,2.1435310551993547
1758301348830621400,3.879621337890625,0.5142424117367714,-2.8638725973039865,1.9582525214768944
1758301348840594400,3.889594482421875,-0.05440495940446853,-2.3226573499023915,0.9556612870641052
1758301348850568400,3.899568359375,-0.5011491944730282,-0.6442769779473543,-0.6930662894271313
1758301348860542500,3.90954248046875,-0.6111901163816452,0.23598083921670912,-1.4322874501772225
1758301348870515700,3.919515625,-0.3523059559613466,-0.4406663764595985,-0.9414135660029948
1758301348880489500,3.929489501953125,-0.09279286825405433,-2.7842630540162325,0.12208294961899518
1758301348890462500,3.93946240234375,0.562931404647231,-2.774973832145333,0.7135534893997013
1758301348900436500,3.9494365234375,1.1914426581859587,-1.1529437084436416,-0.0067610185675323
1758301348910410500,3.959410400390625,0.7493184841334819,-0.13013093925714492,-0.6949817676596343
1758301348920383500,3.969383544921875,0.03783784635192714,-0.38948680884242054,-0.313477628134191
1758301348930357500,3.979357421875,-0.1449070681065321,-0.1305465343207121,0.24442089691236613
1758301348940331500,3.98933154296875,-0.1008832174628973,0.8661094648241996,0.4469929491326213
1758301348950304500,3.999304443359375,-0.16919453714489935,0.8000818721652031,0.734529934193939
1758301348960278500,4.009278564453125,-0.22167174335718154,0.5470207188099623,0.9431403897956013
1758301348970251500,4.01925146484375,-0.3239771025776863,0.8606739957720041,0.7907311293654143
1758301348980225500,4.0292255859375,-0.21250410203933714,0.4331856653153896,0.7945471805222332
1758301348990199600,4.039199462890625,0.028212542660767212,0.26987843264341355,0.660446168590337
1758301349000172500,4.049172607421875,-0.09631516976184211,0.17035890474915502,0.5172543799690902
1758301349010146600,4.059146484375,-0.23653027152670547,0.005803717842698097,0.334513109639287
1758301349020119600,4.06911962890625,-0.3139864544391632,-0.5357610736489296,0.04856412442177534
1758301349030093300,4.07909326171875,-0.2207996184314601,-0.5877385136455298,-0.26330723755955693
1758301349040067300,4.0890673828125,-0.2531774549449794,-0.33475042552649975,-0.3541254264734685
1758301349050040600,4.09904052734375,-0.3843231424689293,-0.3592167582631111,-0.18957666930779812
1758301349060014600,4.1090146484375,-0.48065819510817526,-0.09533084403276443,-0.02708572145476937
1758301349069988600,4.118988525390625,-0.783500155198574,0.0692114833921194,-0.1702075866449624
1758301349079961600,4.128961669921875,-1.055112279766798,0.2793915263980627,-0.2561923640530556
1758301349089935600,4.138935546875,-0.9971627796232699,0.5894190140783786,-0.3255201673012227
1758301349099908600,4.14890869140625,-1.7292343608796596,0.5572457602262496,-0.6217687204759568
1758301349109882600,4.158882568359375,-2.1857471257686614,0.8565601307123899,-1.199895648428425
1758301349119856600,4.168856689453125,-2.3111375925004483,0.7985521783798932,-1.6291820412829516
1758301349129829400,4.178829345703125,-2.1368694053530692,0.55467152582407,-1.7200605820819734
1758301349139803400,4.188803466796875,-2.497532270771265,-0.48969782613217827,-1.0672467350009829
1758301349149777400,4.19877734375,-3.661225336766243,-1.7487907097429036,-0.25921872613690794
1758301349159750400,4.20875048828125,0.7703402293741702,2.122345205438137,-2.9613159034460783
1758301349169724400,4.218724365234375,0.5983329728960991,0.9679238256573677,-0.8667672711458057
1758301349179698400,4.228698486328125,-1.313708270895481,0.37381811506748197,0.11272855355739593
1758301349189671400,4.23867138671875,-1.3274503805220126,0.266703309738636,1.1046950797118247
1758301349199645400,4.2486455078125,-0.26850831333398817,0.46207507519125934,0.8476256405632943
1758301349209619500,4.258619384765625,-0.5260755094042048,0.9916495691597461,-0.24477204843759534
1758301349219592400,4.268592529296875,-2.156595850086212,0.6938584627181291,-0.6212993493985385
1758301349229566500,4.27856640625,-2.7106758397579194,0.7889233492910861,-1.004313966552168
1758301349239539700,4.288539794921875,-2.694901932042837,0.5616004483044147,-2.0733114176779983
1758301349249513700,4.298513671875,-2.25130476282835,0.514663340562582,-2.8385212984263894
1758301349259487700,4.30848779296875,-1.2941267875909805,1.6528852806925773,-3.1536610145539044
1758301349269460500,4.31846044921875,-1.0017186162967233,0.31330840904712676,-2.3049407836869356
1758301349279434500,4.3284345703125,1.2542939588963984,0.3083352968096733,-1.6809344403520226
1758301349289408500,4.338408447265625,2.223915236121416,-1.3355734812229871,-0.7502080533843487
1758301349299381500,4.348381591796875,2.4221172565639018,-2.618602536216378,-0.39601153443604703
1758301349309355500,4.35835546875,2.999946370613575,-3.4850954474002123,-0.6689391255170106
1758301349319329500,4.36832958984375,3.598489771389961,-3.3291181192249057,-0.7440827754370868
1758301349329302500,4.378302490234375,2.6237925060749054,-2.8918139126747846,-0.06733093034252524
1758301349339276500,4.388276611328125,0.804874951660633,-1.9466694895803927,0.3340406698219478
1758301349349250600,4.39825048828125,-0.3939595703423023,-1.253177522087097,0.08451251289844512
1758301349359223600,4.4082236328125,-0.8102677506148814,-0.14081892201006413,0.40274486127905545
1758301349369197000,4.418197021484375,-0.5131681335687637,0.22480302712023256,0.173009126996994
1758301349379171000,4.428171142578125,0.2692401347398758,0.7991185800909996,0.304409574733302
1758301349389144000,4.43814404296875,0.805128634160757,1.1877397120147943,0.5689513955891132
1758301349399118000,4.4481181640625,1.3790648324251173,1.3941156865626572,0.3302148279234767
1758301349409092000,4.458092041015625,1.8038976799368858,1.3802940819591283,0.15636033614352343
1758301349419065300,4.4680654296875,1.9913912593603134,1.298232469344139,-0.3465205044277012
1758301349429039400,4.478039306640625,1.8874094913601873,1.0773381401002406,-0.8501520172357558
1758301349439013000,4.48801318359375,1.8440461504518986,0.8411591479629278,-1.3110558566905557
1758301349448986400,4.497986328125,2.0682558878540993,0.8040788328468799,-1.5138991270676254
1758301349458960400,4.50796044921875,1.8367115697801113,0.9422282433867454,-1.2479239854730666
1758301349468934400,4.517934326171875,1.3677157554149626,0.8594166891872882,-1.2385409478388727
1758301349478907100,4.5279072265625,0.9006956250369548,1.0430758050143718,-0.8267369471177458
1758301349488881200,4.537881103515625,0.8428829030156135,0.8151946856230496,-0.999064083199948
1758301349498855200,4.547855224609375,1.2424322561889887,1.1586205850362776,-0.9165237471573054
1758301349508829200,4.5578291015625,1.1798217784971,1.504250716495514,-0.55579512302652
1758301349518802200,4.56780224609375,0.6543927137702703,1.5858435425549744,-0.3933927302397787
1758301349528776200,4.577776123046875,0.24017595281898974,1.7643004135638474,-0.3639294659987092
1758301349538750200,4.587750244140625,0.15341069255769252,1.4463117377460002,-0.34299759099856014
1758301349548723200,4.59772314453125,0.11930559386014937,1.17508422858119,-0.32641733533665535
1758301349558697200,4.607697265625,0.18567684885766356,1.086041671037674,-0.4717250931985676
1758301349568671200,4.617671142578125,0.50592353273537,0.4909475339323282,-0.3145252374909818
1758301349578644200,4.627644287109375,0.9104390204161406,0.2220925991177559,-0.47917438629120584
1758301349588618200,4.6376181640625,0.8302133910566568,0.36857378467321394,-0.8925140721470117
1758301349598592300,4.64759228515625,0.4925221628379076,0.4819897359728813,-1.0458819484762847
1758301349608565200,4.657565185546875,0.43533020306341347,0.8057417976230382,-0.7948410489022731
1758301349618539300,4.667539306640625,0.39086284643597896,1.433296188828349,-0.5996035773538053
1758301349628513300,4.67751318359375,0.3699532563328743,2.05887314248085,-0.21389935579001904
1758301349638487300,4.6874873046875,-0.06315693259350955,2.020857592341304,0.007288549572974443
1758301349648460000,4.6974599609375,-0.23944705402255057,1.7688047392457722,-0.1715880081526935
1758301349658434000,4.70743408203125,-0.23863807572722434,1.4732704718202352,-0.17282924038544295
1758301349668408000,4.717407958984375,-0.6189075588911771,0.3470768231362104,-0.09999452499486505
1758301349678381300,4.72738134765625,-0.8381635463435202,-0.7477525499910116,-0.2989947831429541
1758301349688355300,4.737355224609375,-1.1424052171640098,-1.3772078063815831,-0.6175451114315539
1758301349698329000,4.7473291015625,-1.3999188198834658,-1.3583353481292724,-0.9761076435696333
1758301349708302300,4.75730224609375,-1.4050567672938108,-1.1817167984634638,-0.7787387860156595
1758301349718276400,4.7672763671875,-1.3914450060486794,-0.9427712642222642,-0.6291272665452212
1758301349728250400,4.77725048828125,-1.5683885498851537,-0.7550801164001226,-0.688670611751452
1758301349738224400,4.787224365234375,-1.4270248534739016,-0.47913843819499013,-0.9153113026276231
1758301349748197400,4.797197265625,-1.4788099857687949,-0.30208851137459275,-1.1403588790934531
1758301349758171400,4.80717138671875,-1.3271797468870878,0.0010959785431623459,-1.5422347024530172
1758301349768145400,4.8171455078125,-1.1251029308378695,0.1802981149613857,-2.0062804931953546
1758301349778118100,4.8271181640625,-1.2620862202078102,0.5818044474214316,-2.4197797535270453
1758301349788092200,4.837092041015625,-0.9333663070172071,0.6918237420201301,-2.5226193657547236
1758301349798066200,4.847066162109375,-0.44342305475659666,0.5240887560337781,-2.5719191109746693
1758301349808040200,4.857040283203125,-0.03507248242497444,0.34562428624033925,-2.800975411625206
1758301349818013200,4.86701318359375,0.27065117058157917,0.0850537801682949,-3.0482804856717585
1758301349827987200,4.8769873046875,0.4347965711107477,-0.09951660528481006,-3.0944971701845523
1758301349837961200,4.886961181640625,0.19615148112084715,-0.44919571987390516,-2.8325203044459224
1758301349847935200,4.896935302734375,0.014446458503603935,-0.6700105541408061,-2.5313302032157776
1758301349857908200,4.906908203125,-0.25688918721079823,-1.1544506058752535,-2.4504469867303964
1758301349867882200,4.91688232421875,-0.3643143371304497,-2.023454623097181,-2.0468552262984216
1758301349877856300,4.926856201171875,-0.6104571259319782,-2.9914094284147024,-1.7159893871203065
1758301349887829200,4.936829345703125,-1.1077397081047295,-3.7003479713648555,-1.7906936227098107
1758301349897803300,4.94680322265625,-1.6214537851184605,-4.196529314297438,-1.7469199474349617
1758301349907777300,4.95677734375,-1.4700550169050692,-4.308770961120724,-1.811449848882109
1758301349917751300,4.966751220703125,-0.6709037035882472,-3.9178900675714012,-1.7968112288072704
1758301349927724000,4.97672412109375,0.057149874198436736,-3.297047156703472,-1.3532210738554595
1758301349937698000,4.986697998046875,0.04113284190986305,-3.5934389177411794,-0.5378051466971635
1758301349947672000,4.996672119140625,0.6932680956095457,-2.9782752215534445,-0.7185944061763584
1758301349957645000,5.00664501953125,1.9509552040755747,-2.6932161709129807,-1.0699799593571573
1758301349967619000,5.016619140625,2.9269957006931304,-2.6989000617682932,-0.9999999027453362
1758301349977593000,5.026593017578125,2.4862305400341747,-4.704483512610197,0.7311391227118671
1758301349987567000,5.036567138671875,2.4209844531416893,-1.3774340163528918,0.019034005489572882
1758301349997540400,5.046540283203125,3.8242888238102197,1.034741107389331,-1.7149005689702927
1758301350007514000,5.05651416015625,2.1829683087050915,0.937355668914318,-0.8693573607042432
1758301350017488100,5.066488037109375,1.1891256134152413,1.0720733514398335,0.7068161439687013
1758301350027462100,5.076462158203125,1.430735398429632,2.260448438748717,1.0199854368060826
1758301350037435400,5.086435302734375,1.9836258860558271,2.724762232777476,1.0800384851001203
1758301350047409400,5.096409423828125,2.15602126506865,2.6552882990568873,0.9631181789413094
1758301350057383400,5.106383544921875,1.9157348376125096,2.788023283332586,0.08058540258258581
1758301350067356200,5.116356201171875,1.664372304868698,2.839480498847365,-1.1514891257211566
1758301350077330200,5.126330078125,1.8132663967847824,2.4819728825896976,-1.3344544140651822
1758301350087304200,5.13630419921875,1.99055831566751,1.4833932219058275,-0.29531945563107725
1758301350097278200,5.1462783203125,1.9163444939434526,1.173728722319007,0.7494149302452803
1758301350107251200,5.156251220703125,0.7274018358796834,0.4630711004912853,0.5180085593372583
1758301350117225200,5.16622509765625,-0.704722386559844,-0.2205792719453573,0.014066665405780077
1758301350127199200,5.17619921875,-0.271309926751256,-0.543306082201004,-0.2509815706022084
1758301350137173200,5.18617333984375,1.0186147329747677,-0.8232786233574152,-0.17097426016852257
1758301350147146200,5.196146240234375,1.7169336822330952,-1.075489297363162,0.25325594527497886
1758301350157120300,5.206120361328125,1.8596213207244872,-1.1487632078886032,0.5285587410546839
1758301350167094300,5.21609423828125,1.731262651836872,-0.7257341949284076,0.7072092349395156
1758301350177068300,5.226068359375,1.504708981657028,0.05035363818705082,0.765401165536791
1758301350187041300,5.236041259765625,1.302436350774765,0.7686912931233644,0.9034082449965178
1758301350197015300,5.246015380859375,1.030275944674015,1.213865502396226,1.0706764902539552
1758301350206989300,5.2559892578125,0.7072703174769878,1.5111393069654702,1.144191223797947
1758301350216962300,5.26596240234375,0.4211433453440666,1.5550480067968369,1.09007297238037
1758301350226936300,5.275936279296875,0.2967197143504396,1.2383353422641754,0.9294657924473285
1758301350236910300,5.285910400390625,0.3388614045092836,0.7901882546603679,0.6495509728275239
1758301350246884000,5.295884033203125,0.33062424897458403,0.430605585694313,0.272680630582571
1758301350256857000,5.305857177734375,0.234874887268804,0.13597031293511389,0.10072904981449246
1758301350266831000,5.3158310546875,0.2916354698887095,0.03756313019692897,0.051680064485222096
1758301350276805000,5.32580517578125,0.45032505269739775,0.2614537186473608,0.04462897692993283
1758301350286779100,5.335779052734375,0.5504945689329878,0.6441437069565057,0.04155366113781929
1758301350296752000,5.345752197265625,0.6437761157531291,1.037163366100192,0.1199416998066008
1758301350306726100,5.35572607421875,0.5498656233796849,1.290962770602107,0.29292817658036946
1758301350316700200,5.3657001953125,0.395741193062067,1.4019132085710764,0.2996986936286092
1758301350326674200,5.375674072265625,0.22466913507487624,1.4520306999146937,0.18706921653151512
1758301350336647200,5.385647216796875,0.08127312911842018,1.499102832213044,0.12426467757225036
1758301350346621200,5.39562109375,-0.03270750685930252,1.4830875169575213,-0.002492839729040861
1758301350356595200,5.40559521484375,-0.10914777246117591,1.5281009631603955,-0.14009426099732517
1758301350366568400,5.415568359375,-0.13025485789775848,1.4934715483278036,-0.23661679903268812
1758301350376542500,5.42554248046875,-0.20301729350341483,1.4813924034774302,-0.29415216541737316
1758301350386516500,5.4355166015625,-0.5206149424433708,1.4442302552968262,-0.43053237432762975
1758301350396490500,5.445490478515625,-1.0647136363267897,1.3308446991354226,-0.6813720522411167
1758301350406463700,5.455463623046875,-1.476122354120016,1.3085229772120714,-1.2698629916891455
1758301350416437500,5.4654375,-1.4202315400719643,1.237573125720024,-1.7623793823733924
1758301350426411500,5.47541162109375,-1.25919575946331,0.7156050151020288,-1.7008274738237261
1758301350436385500,5.485385498046875,-1.483809986013174,0.1661643756687641,-1.479993496464938
1758301350446358800,5.49535888671875,-1.5717583185791968,-0.2042313637346029,-1.45837860763669
1758301350456332800,5.505332763671875,-1.1546809074997901,-0.507923218652606,-1.6482929844662546
1758301350466306600,5.515306640625,-0.3785878136873245,-0.5822890160679817,-1.789907733029127
1758301350476280600,5.525280517578125,-0.15755670632123947,-0.5009001881480216,-1.4361882570080458
1758301350486253800,5.53525390625,-0.3425719129323959,-0.49487201389968394,-0.9246628491450101
1758301350496227800,5.545227783203125,-0.6882990750253201,-0.4637199197888374,-0.42909912665411826
1758301350506201900,5.555201904296875,-1.2181880417704583,-0.4863859251052141,-0.2899474802691489
1758301350516176000,5.56517578125,-1.5960241603076457,-0.5516682523548603,-0.39740744577385484
1758301350526148600,5.575148681640625,-1.607118385773897,-0.32348142801523205,-0.6814970668602734
1758301350536122600,5.58512255859375,-1.798695435118675,0.061819619575142856,-1.08094091383256
1758301350546096600,5.5950966796875,-1.9737959814369677,0.29269933626055716,-1.58489106413573
1758301350556070700,5.605070556640625,-1.5195698661804198,0.25551731433570385,-2.097526259871572
1758301350566043600,5.615043701171875,-0.49618543458580966,-0.21721476394832134,-2.2321586022011934
1758301350576017700,5.625017578125,0.6056266370356083,-0.8004851922690868,-1.9796959992609917
1758301350585991700,5.63499169921875,1.4906921467423437,-1.689331389558315,-1.588748031824827
1758301350595965700,5.644965576171875,2.9088638316750526,-2.3752263260513544,-0.8073460179492831
1758301350605938700,5.654938720703125,4.241766632384062,-2.8998382291764018,0.291315772947669
1758301350615912700,5.66491259765625,3.9149370629847047,-3.493617192029953,0.8953884585395455
1758301350625886700,5.67488671875,2.2423510565221307,-3.726901047247648,0.59806993804574
1758301350635860700,5.68486083984375,0.7134452067196368,-3.354377648165822,-0.23512078832127153
1758301350645833700,5.694833740234375,0.46651393442153927,-2.7187264597445724,-0.4527771585572511
1758301350655807700,5.704807861328125,0.6799369048714637,-2.0314123041033745,0.003359101169556379
1758301350665781800,5.71478173828125,0.6197451787590981,-1.0404255827665327,0.25309344818964596
1758301350675755800,5.724755859375,0.4989700968682766,0.05900514667630195,0.20181787285208702
1758301350685728500,5.734728515625,0.6840788269817829,0.9890881942391395,0.13968144241273403
1758301350695702500,5.74470263671875,1.2895195860564708,1.7354186024725435,-0.05029445534572005
1758301350705676500,5.754676513671875,2.031236947536468,2.1333938381969926,-0.3625012598264962
1758301350715650600,5.764650634765625,3.0126795954585073,2.1367080773115155,-0.8598181095950305
1758301350725623600,5.77462353515625,3.96259663978219,1.8704384828150271,-1.337207512165606
1758301350735597600,5.78459765625,4.456856659263372,1.4169582174897193,-1.6151871259391306
1758301350745571600,5.794571533203125,4.240382484549284,0.9840227275431156,-1.6267898854494094
1758301350755545600,5.804545654296875,3.3949732779264448,0.7169909165024757,-1.41921388746202
1758301350765518600,5.8145185546875,2.337695929080248,0.5572019210845232,-1.1249243594005702
1758301350775492600,5.82449267578125,1.3915455438137054,0.35268121901452537,-0.7742641978848726
1758301350785466600,5.834466552734375,0.7496200974285602,0.12533435263037682,-0.3461496983539313
1758301350795440600,5.844440673828125,0.3138204502224922,-0.192377259811759,0.3600909838143736
1758301350805413600,5.85441357421875,-0.04163081802725792,-0.39174130977094174,0.6639288230743259
1758301350815387600,5.8643876953125,-0.2667950796753168,-0.05750584802925587,0.5565814510986209
1758301350825361700,5.874361572265625,-0.3490039918065071,0.30460721619725223,0.3599971680510789
1758301350835335700,5.884335693359375,-0.35225919421017166,0.5860410620778799,0.20934600333459674
1758301350845308400,5.894308349609375,-0.07917407447993755,0.8622194716483355,-0.07132299565337598
1758301350855282400,5.904282470703125,0.4510065686881542,1.176419276577234,-0.37051286297701297
1758301350865256400,5.91425634765625,0.8221984269052743,1.432358031195402,-0.6353062474410981
1758301350875230500,5.92423046875,0.7988836022913456,1.6725696398496628,-0.8716150765031576
1758301350885203700,5.93420361328125,0.6724392425924539,1.78719788954854,-1.0263186584156005
1758301350895177700,5.944177734375,0.6165910986423492,1.7005524562746286,-1.0547256185367704
1758301350905151500,5.9541513671875,0.6375087989866733,1.5027946724683046,-1.0102582619093359
1758301350915124700,5.964124755859375,0.5876228148439899,1.2674234895825385,-0.9693230249308049
1758301350925098800,5.9740986328125,0.4344020919004455,1.0410662187576294,-0.9002954467382281
1758301350935072800,5.98407275390625,0.2580471981395036,0.8976268851161002,-0.8814009227845817
1758301350945046800,5.994046875,0.10441497178561984,0.7963777569502591,-0.9005718525268137
1758301350955020500,6.0040205078125,-0.045448257423564786,0.7105997541606426,-0.9432249993391334
1758301350964993800,6.013993896484375,-0.20885551640391348,0.6525117223292589,-0.9268224383316933
1758301350974967800,6.0239677734375,-0.3234539554864168,0.6216776081264018,-0.8714788098376244
1758301350984941800,6.03394189453125,-0.4329910925913602,0.5564239224493503,-0.7388092189483344
1758301350994915800,6.043915771484375,-0.3413620256859809,0.5931745672196149,-0.989372198812291
1758301351004888600,6.053888671875,-0.37939569600410755,0.7210363925009965,-0.9296369842957705
1758301351014862600,6.063862548828125,-0.4543307446748018,0.7728209402740002,-0.8914257654536515
1758301351024836600,6.073836669921875,-0.6871230169832706,0.7480833893805742,-0.9129745302431285
1758301351034810600,6.083810546875,-0.8348621667105705,0.7381184602051973,-1.0121239827159791
1758301351044783600,6.09378369140625,-0.8220704896766692,0.6842658739864825,-1.0303155460320412
1758301351054757600,6.103757568359375,-0.8590724057942628,0.5787409681975841,-1.05078155708611
1758301351064731600,6.113731689453125,-0.8938585455585271,0.4373965610086918,-1.0404512286644427
1758301351074704600,6.12370458984375,-1.0117617983400822,0.2829471730530262,-0.9091428431257605
1758301351084678700,6.1336787109375,-1.3398007435292005,0.1402396608173847,-0.6696600602027029
1758301351094652700,6.143652587890625,-1.5765496445089577,-0.1825906098127365,-0.49622415916100143
1758301351104626700,6.153626708984375,-1.6057517735958098,-0.6262222658187151,-0.5040117442972958
1758301351114600700,6.1636005859375,-1.4772370373636483,-0.5096376213550567,-1.1249655681937933
1758301351124573700,6.17357373046875,-1.154863862851262,-0.3572808217644691,-1.591398254072666
1758301351134547700,6.183547607421875,-0.7968873869728297,-0.0765747056365013,-2.0671216231271625
1758301351144521700,6.193521728515625,-0.5178595062553882,0.17669746012091636,-2.551292794792354
1758301351154495700,6.203495849609375,-0.2091255655169487,0.4085866461098194,-3.068208882717788
1758301351164468500,6.213468505859375,-0.21387772848010062,0.5311714077711105,-3.1692490443080663
1758301351174442500,6.2234423828125,-0.42328320691697296,0.36491350859999655,-2.770510715256631
1758301351184416500,6.23341650390625,-0.2814157257020473,0.023403087419271468,-2.279556897713989
1758301351194389500,6.243389404296875,-0.08431962067484855,-0.36960605033040045,-1.6663932893022895
1758301351204363500,6.253363525390625,0.08196640861220657,-1.119844571918249,-1.1775216848611831
1758301351214337500,6.263337646484375,0.24876615957506,-2.130930078431964,-1.0407932470351458
1758301351224311600,6.2733115234375,0.4622960244655609,-2.7076924400329587,-0.9676121293596923
1758301351234285600,6.28328564453125,0.12378946127593517,-2.8853105221301316,-1.1338756545539945
1758301351244258600,6.293258544921875,0.4937807845968753,-3.0847932300329206,-1.8106506613284348
1758301351254232600,6.303232666015625,1.8699895700037479,-3.3804958397626876,-2.552169577626884
1758301351264206600,6.31320654296875,2.926832034564018,-3.008872019869089,-2.8676842645466327
1758301351274180600,6.3231806640625,2.7762679636090994,-2.0062106428295374,-2.5530387616768477
1758301351284153600,6.333153564453125,2.2031027497172353,-1.1948644493281841,-2.1595903557270764
1758301351294127600,6.343127685546875,2.2737632628738877,-0.7352642398178577,-1.854247664862126
1758301351304101600,6.3531015625,2.851578932920098,-0.16173369974493979,-1.2253542801380157
1758301351314075600,6.36307568359375,3.1286797180324792,0.41752866197824473,-0.39679457457251843
1758301351324048600,6.373048583984375,2.7866572556763884,0.7602437827736139,0.48893517119660973
1758301351334022700,6.383022705078125,2.03438576695621,0.8954507101207971,1.3349043497897684
1758301351343996400,6.392996337890625,1.0329401954472064,0.7139940727740526,1.9732016688056289
1758301351353970400,6.402970458984375,0.3008160072207451,0.30979192535877226,2.213484150739014
1758301351363943700,6.412943603515625,0.2853939634169452,-0.10128010782599449,1.9824197251364588
1758301351373917200,6.422917236328125,0.44127186807207763,-0.35321897915303707,1.693283634315431
1758301351383891200,6.43289111328125,0.3833487079462036,-0.40686873627603054,1.4530856157951055
1758301351393865200,6.442865234375,-0.09332887482689693,-0.3700970487177372,1.1771408688500522
1758301351403838200,6.452838134765625,-0.25950026475833726,-0.30054712715148924,0.943098011958599
1758301351413812200,6.462812255859375,0.4018494468092918,-0.3833703717887401,0.6780065213307738
1758301351423786200,6.4727861328125,1.2490133881449699,-0.5827408514887095,0.4160419305518269
1758301351433760300,6.48276025390625,1.7528361857414245,-0.7761825256615876,0.25571312916874883
1758301351443733200,6.492733154296875,1.966895116007328,-0.7550503057837485,0.109570966309309
1758301351453707300,6.502707275390625,1.9458897373795507,-0.376686363980174,-0.09345832815915346
1758301351463681000,6.512680908203125,1.662743826884031,0.24240765739381312,-0.30437355357185003
1758301351473654000,6.522654052734375,1.2489958524882794,0.8944184444636106,-0.3085217592924833
1758301351483628000,6.5326279296875,0.8007470580756664,1.4056962342411279,-0.12926847720891235
1758301351493602000,6.54260205078125,0.3496796991109848,1.7477052525937555,0.07221811786219477
1758301351503576000,6.552576171875,0.024253000513184814,1.900918376752734,0.20695866980664432
1758301351513550000,6.562550048828125,-0.11236262458814307,1.8597434857994317,0.2641695534773171
1758301351523523000,6.572523193359375,-0.04613280562162399,1.6373340758174657,0.19760734248496592
1758301351533497000,6.5824970703125,-0.011800327908992766,1.2146101832836866,0.23690189958438276
1758301351543471000,6.59247119140625,0.12395488097071647,0.7995750916868448,0.3824670662734657
1758301351553445000,6.602445068359375,0.2202747360408306,0.6340531055748462,0.4789141279198229
1758301351563418000,6.612418212890625,0.2369032330249436,0.5395289017498492,0.5462168550811708
1758301351573392100,6.62239208984375,0.1438064316545613,0.47568216026127336,0.8054173879742622
1758301351583366100,6.6323662109375,-0.019616554617881775,0.5836024367541074,1.0486069164607674
1758301351593340200,6.642340087890625,-0.13966682936549185,0.8657429695993661,1.1282876252885907
1758301351603313200,6.652313232421875,-0.3316846082150936,1.188404313403368,0.9575894786477088
1758301351613287200,6.662287109375,-0.805037448745966,1.4405933600991963,0.5792006946638226
1758301351623261200,6.67226123046875,-1.3124725916206836,1.516531521397829,0.01405636320747435
1758301351633235200,6.682235107421875,-1.5488076511025428,1.470745921778679,-0.618485387956351
1758301351643208000,6.6922080078125,-1.441418120485544,1.4355857610702514,-1.2109125708747654
1758301351653182000,6.702181884765625,-1.133970127904415,1.3769348346590995,-1.7019649534210561
1758301351663156000,6.712156005859375,-0.8015992909908294,1.2307201910853385,-2.006823221769929
1758301351673130000,6.7221298828125,-0.5669499926388263,0.7905103262215852,-2.0289637419074773
1758301351683103000,6.73210302734375,-0.6816320183515548,0.20220716443061829,-1.6119479978874325
1758301351693077000,6.742076904296875,-0.8577449565827846,-0.19877777450382708,-1.001204529294744
1758301351703051000,6.752051025390625,-1.1225275273919104,-0.40786593061983584,-0.46889556886106726
1758301351713025000,6.76202490234375,-1.6001356872797012,-0.3305336846143007,-0.2587312348809093
1758301351722998000,6.771998046875,-1.9476292745232582,-0.04816577275395393,-0.35834136366806923
1758301351732972000,6.781971923828125,-1.947933225905895,0.4316524643987417,-0.7990128546942025
1758301351742946000,6.791946044921875,-1.6257260556101798,1.203327741768956,-1.6189058542013168
1758301351752920000,6.801920166015625,-1.4067875366091727,1.809973200458288,-1.9801894818663597
1758301351762893300,6.811893310546875,-1.753066487365961,1.611842491686344,-1.5194900789424777
1758301351772867300,6.821867431640625,-2.1140601921737194,0.488661468821764,-1.2660606767967342
1758301351782841000,6.831841064453125,0.5112216756761073,-0.8729115460544824,-1.7232547019481659
1758301351792815000,6.841815185546875,4.5402959899723525,-2.4941741925150156,-0.970579746993631
1758301351802788000,6.8517880859375,6.436045439654588,-5.248233831447362,0.6716672353066504
1758301351812762000,6.86176220703125,7.1764464578390115,-7.141224922332167,1.9635563269734382
1758301351822736100,6.871736083984375,4.949690445333719,-6.339332201352715,1.2805249632179736
1758301351832710100,6.881710205078125,0.6693044516980647,-3.2684412399441003,-0.2751297042351216
1758301351842683100,6.89168310546875,-0.8377613222181797,0.13538403747975825,-0.2935642094615847
1758301351852657200,6.9016572265625,0.08540105923600494,2.117439897739887,1.0201382162149994
1758301351862631200,6.911631103515625,0.9882160875797271,2.3153420584529636,2.2033768904834985
1758301351872605200,6.921605224609375,1.1304700108289718,1.6302660371273756,2.5299632987767455
1758301351882579200,6.9315791015625,1.506898600655794,0.7761988922744989,1.7698124549835919
1758301351892552200,6.94155224609375,2.573923436534405,-0.09719137720763683,0.6844818548247218
1758301351902526200,6.951526123046875,2.9988311028480528,-0.9506716620832681,-0.12876257351338863
1758301351912500200,6.961500244140625,2.585540224570036,-1.4714087696015834,-0.7552638024039566
1758301351922473200,6.97147314453125,2.0674141763329503,-1.7066624635875225,-1.2927055226162074
1758301351932447200,6.981447265625,1.7004256150245665,-1.5661112526029348,-1.9344322315588591
1758301351942421200,6.991421142578125,1.4696633872389793,-1.0573954222679138,-2.3194151531107723
1758301351952395300,7.001395263671875,1.3633891243875025,-0.4883458270013332,-2.0321245440259577
1758301351962369300,7.011369384765625,1.297773619660735,-0.021528525719046593,-1.2556138093233107
1758301351972342000,7.021342041015625,1.0799275720715522,0.3875754222631454,-0.37739977294653654
1758301351982316000,7.03131591796875,0.8707891470730305,0.8831102839857339,0.12372889019511639
1758301351992290000,7.0412900390625,0.6730436382263898,1.3588386214762926,0.27914244700782
1758301352002264000,7.05126416015625,0.5236504011491313,1.6538485727667807,0.24038798813447354
1758301352012237000,7.061237060546875,0.5129197117656469,1.6925035898536442,0.14845358160696923
1758301352022211000,7.071211181640625,0.6676169370025395,1.4911755463451146,-0.0016609189495444296
1758301352032185000,7.08118505859375,0.7912608523279429,1.1283984652519226,-0.15632658000439403
1758301352042159000,7.0911591796875,0.8403384792298078,0.7403039875507355,-0.23729257940240203
1758301352052132000,7.101132080078125,0.8286451188266277,0.488359271004796,-0.3294775266248733
1758301352062106000,7.111106201171875,0.7554863591134547,0.36720015823245045,-0.3079628833007067
1758301352072080100,7.121080078125,0.6352268255293368,0.3124228583842516,-0.17084084304720162
1758301352082054100,7.13105419921875,0.5231377389192581,0.3485100708097219,0.04381145000196993
1758301352092027100,7.141027099609375,0.38745851788520813,0.42168110548257826,0.20280374208427965
1758301352102001200,7.151001220703125,0.2262316716838628,0.4659814349800348,0.2588995041199028
1758301352111975200,7.16097509765625,0.08750117332041263,0.5166156436741351,0.297966828334704
1758301352121949200,7.17094921875,0.01579085884988308,0.5326689528524875,0.21749116973690688
1758301352131922000,7.180921875,0.0005056844998151064,0.4966811091482639,-0.01682327063754201
1758301352141896000,7.19089599609375,-0.021180004542320965,0.44733460217714305,0.017818126893788575
1758301352151870000,7.200869873046875,0.06770809309184551,0.35232056900858877,0.018223054432868955
1758301352161844000,7.210843994140625,0.14093115021288394,0.3268558728843927,-0.06999832292087375
1758301352171818000,7.22081787109375,0.12830430835187434,0.32469664902389045,-0.20429690325148403
1758301352181791000,7.230791015625,0.05288629846982658,0.3462526472717523,-0.2893847318198532
1758301352191765000,7.240764892578125,-0.054941039042547345,0.3629050913870334,-0.42172384864576157
1758301352201739000,7.250739013671875,-0.0736244775287807,0.3815121767014265,-0.5567511085771024
1758301352211713000,7.260713134765625,-0.02864800233542919,0.3657645724713802,-0.7220719460938125
1758301352221686000,7.27068603515625,0.06763137459382415,0.3367687796115875,-0.8831367336012422
1758301352231660000,7.280659912109375,0.15156988699659704,0.249466928255558,-1.0663801812995224
1758301352241634000,7.290634033203125,0.14242811077237127,0.08775777842998504,-1.1957399900536982
1758301352251608000,7.300608154296875,0.03858180572018027,-0.025103461596369742,-1.2542235240086912
1758301352261581000,7.3105810546875,-0.014871990439295768,-0.11810440137684344,-1.2411658895149826
1758301352271555000,7.32055517578125,-0.06910758462622761,-0.2877659715116024,-1.1130665291506796
1758301352281529000,7.330529052734375,-0.2277797048434615,-0.5141524684309959,-1.0225946694564074
1758301352291503000,7.340503173828125,-0.42427126810625193,-0.8503677058130502,-0.9853650820627808
1758301352301476000,7.35047607421875,-0.4623024542063474,-1.1541098296135663,-1.023513610932231
1758301352311450000,7.3604501953125,-0.44770752714276313,-1.4181313529223203,-1.023555623443052
1758301352321424100,7.370424072265625,-0.42677857475206255,-1.6799702714949845,-1.0487845380499958
1758301352331398000,7.38039794921875,-0.49614671001061794,-1.9040233570307492,-1.0608308035440743
1758301352341372000,7.390371826171875,-0.5547809775479138,-2.101132321539521,-0.903287029769644
1758301352351345200,7.40034521484375,-0.6460438414894044,-2.391357376641035,-0.5962761864967644
1758301352361319200,7.410319091796875,-0.673410717973113,-2.77046599933207,-0.4842945788491517
1758301352371293400,7.42029345703125,-0.1389082660831511,-3.124523182874918,-0.6355458283506333
1758301352381267500,7.430267333984375,0.9744073424577713,-3.182648039585352,-0.9646578095987438
1758301352391240700,7.44024072265625,2.0063899449191984,-2.820249144154787,-1.4640687821023166
1758301352401214700,7.450214599609375,2.2407330999314783,-2.5826982791423796,-1.8844155702412126
1758301352411188500,7.4601884765625,1.718238188960403,-2.781105466768145,-2.0304900746919214
1758301352421162500,7.47016259765625,0.9471043249905109,-3.1979467310041185,-1.9145527882210909
1758301352431135500,7.480135498046875,0.6244125860482453,-3.6678538149952886,-1.4759291696354746
1758301352441109500,7.490109619140625,0.8648071500539779,-3.798815359857678,-0.8554593298636376
1758301352451083500,7.50008349609375,1.3777075725972652,-3.2258395310580728,-0.15314868062064052
1758301352461057500,7.5100576171875,1.7060661051295696,-2.2917665370762346,0.9578799129616469
1758301352471030500,7.520030517578125,1.8343610611312091,-1.3729746988564728,1.8350997506693005
1758301352481004500,7.530004638671875,1.7660006416104732,-0.6461550467789172,2.216721525225043
1758301352490978600,7.539978515625,1.593788217949122,-0.2899398084193468,2.1650173492118716
1758301352500952600,7.54995263671875,1.4225876016788184,-0.21077333272397517,1.881687460451573
1758301352510926600,7.559926513671875,1.2365915673367678,-0.31280221309065814,1.5622162909910082
1758301352520899600,7.569899658203125,1.0100484185509384,-0.41376434100866316,1.2263128960371017
1758301352530873600,7.57987353515625,0.81655545258224,-0.45622284203171726,1.0334554514929652
1758301352540847600,7.58984765625,0.7138024957247078,-0.34002632010281086,0.9937083283204585
1758301352550821600,7.599821533203125,0.5290883178867399,-0.0810451290488243,1.1134800053223968
1758301352560794600,7.609794677734375,0.23391937664225695,0.25970950532853604,1.214468948182091
1758301352570768600,7.6197685546875,-0.08858078525066375,0.738853788742423,1.1716377413891255
1758301352580742700,7.62974267578125,-0.3154986125677824,1.1478805798351763,1.0800608430624008
1758301352590716700,7.639716552734375,-0.37439839917346834,1.4509014036238193,0.9520257070407271
1758301352600689400,7.649689453125,-0.2771935779623687,1.611834892901778,0.7865463910266757
1758301352610663400,7.659663330078125,-0.14621931974887847,1.6069436137288808,0.6453520598329603
1758301352620637400,7.669637451171875,0.0367559054672718,1.2913713514029979,0.5327744225209579
1758301352630611500,7.679611572265625,0.3077656802281737,0.7338140410095453,0.3652722589097917
1758301352640585500,7.68958544921875,0.5627084095463156,0.1325719026684761,0.12948277754671872
1758301352650558500,7.699558349609375,0.6840611451946198,-0.3264291719049215,-0.07951415662188083
1758301352660532500,7.709532470703125,0.7594077703408897,-0.545094719183445,-0.13956662039402873
1758301352670506500,7.719506591796875,0.7062023959845304,-0.4203355360925197,-0.07351199359763413
1758301352680480500,7.72948046875,0.4550725029528141,-0.12777648508548736,0.07083506600596011
1758301352690453500,7.73945361328125,0.11644143660068511,0.14943535918593406,0.1561488122846931
1758301352700427500,7.749427490234375,0.10540288684442639,0.5556342333763837,0.23643943317178637
1758301352710401500,7.759401611328125,0.22837562490999697,1.1466606826514005,0.4600386739928275
1758301352720375600,7.76937548828125,0.15748714821636675,1.4935715015709399,0.6033163873318582
1758301352730348500,7.7793486328125,-0.08015848240740597,1.444669231235981,0.6894848507437854
1758301352740322600,7.789322509765625,-0.11202537372410297,1.1888842058748006,0.8289072768941521
1758301352750296600,7.799296630859375,0.23634083163551986,0.7366834589660167,0.9439273023895919
1758301352760270600,7.8092705078125,0.32094292251355944,0.48762043533623217,1.0587333928734064
1758301352770244600,7.81924462890625,0.4147247104734182,0.5289624995499849,0.9650281042158603
1758301352780217300,7.82921728515625,0.2977695521969348,0.7178226911514997,0.786938824410364
1758301352790191400,7.83919140625,0.27939203785471617,1.1841992629289626,0.6575790887214243
1758301352800165400,7.849165283203125,0.046535614268854254,1.6166162819594143,0.3196058286909014
1758301352810139400,7.859139404296875,-0.3838087632060051,2.1611370006471873,-0.10541077788993716
1758301352820112400,7.8691123046875,-0.6303993323076515,2.731110725021362,-0.24770978238992392
1758301352830086400,7.87908642578125,-0.8475630967210978,3.089745884004235,-0.43002047928273673
1758301352840060400,7.889060302734375,-1.014874961924553,3.0264059229940172,-0.4395598765224218
1758301352850034400,7.899034423828125,-0.9557184971440583,2.8354087193638087,-0.3999625736167654
1758301352860007400,7.90900732421875,-0.847358002603054,2.5747552111834286,-0.35475013424307106
1758301352869981400,7.9189814453125,-0.4999012402385473,2.0263351469695565,-0.2519707643026486
1758301352879955500,7.92895556640625,-0.34134273646362123,1.5569097090154886,-0.17282734068930147
1758301352889929500,7.938929443359375,-0.387351038922742,1.3036924883157015,-0.12184227273091673
1758301352899903500,7.948903564453125,-0.5194114118725061,1.2548065845936536,0.04170391979608685
1758301352909876500,7.95887646484375,-0.6901461641967296,1.0270482147991657,0.027707031690888104
1758301352919850500,7.9688505859375,-0.8157868793625385,0.37006723810136316,0.03369892904944718
1758301352929824500,7.978824462890625,-0.6368267350066453,-0.2020931826621294,0.20267799681276083
1758301352939798500,7.988798583984375,-0.4802191461037844,-0.4591074575573206,0.30247389396298674
1758301352949771500,7.998771484375,-0.5717156726706772,-0.5588654703825712,0.20479316233582792
1758301352959745300,8.008745361328126,-0.7986919521767646,-0.6236977157771587,0.029495084151439366
1758301352969719300,8.01871923828125,-1.0350532420784235,-0.7571709511995315,-0.14692249958217143
1758301352979693300,8.028693359375,-1.252235857322812,-1.0504168154269455,-0.2978606280138716
1758301352989667300,8.038667236328125,-1.3864052583158015,-1.3819962097018956,-0.3689845208985731
1758301352999640600,8.048640625,-1.3393880710750818,-1.5792431213766336,-0.35579525938183065
1758301353009614600,8.058614501953125,-1.2760212220579386,-1.7324164980471133,-0.43573589778747407
1758301353019588400,8.06858837890625,-1.3638503121584653,-1.706670646893978,-0.6253254631094635
1758301353029562400,8.078562255859374,-1.069977840465307,-1.379388073030114,-0.8801631246179342
1758301353039535600,8.08853564453125,-0.6277315013378858,-1.7587001093387602,-1.2557014876067638
1758301353049509600,8.098509521484376,0.6510001487225294,-2.048342980638146,-0.2503202936818823
1758301353059483600,8.108483642578125,1.3056167343765497,-2.7268665115803477,1.0947262050136923
1758301353069457400,8.11845751953125,1.1144552800953387,-3.8015842400491233,2.3985978492885827
1758301353079431400,8.128431396484375,2.1423650801599026,-4.490313523185253,2.4662685329794884
1758301353089404700,8.13840478515625,1.5990496456086634,-5.518761667910218,-0.04779982551839202
1758301353099378700,8.148378662109375,0.6261884366143494,-5.542583857524395,-2.1177207605078814
1758301353109352700,8.158352783203124,1.1383043577164411,-3.9294279451519247,-1.4004257464922965
1758301353119326500,8.168326416015624,2.0445435883551837,-1.878462214794755,0.43679234803784633
1758301353129299500,8.178299560546876,2.673686125534773,0.30004560737013813,0.9968389544963836
1758301353139273500,8.1882734375,2.028487356567383,1.736680585232377,0.04875442282948643
1758301353149247500,8.19824755859375,1.009165936627984,2.6881629791766404,-1.075621326244995
1758301353159221500,8.208221435546875,0.7171797170728444,3.006063392189145,-0.8912579346060753
1758301353169195500,8.218195556640625,1.1616834797382354,2.209554702335596,0.4403503327803686
1758301353179168500,8.22816845703125,1.7515531601935623,1.4224001162827014,1.3727458585366605
1758301353189142500,8.238142578125,1.8402771533071993,0.9266980812996626,1.5011483665660024
1758301353199116500,8.248116455078126,1.4922645106256007,0.4542810603141784,1.157343550837785
1758301353209090600,8.258090576171876,0.9420463840138167,0.051019408619403836,1.0042069990463554
1758301353219063600,8.2680634765625,0.3480832967650145,-0.1594330215871334,1.2877262728989123
1758301353229037600,8.27803759765625,-0.07371522455215454,-0.3512590772569179,1.687162813347578
1758301353239011600,8.288011474609375,-0.34955928760170935,-0.5731266354471445,1.656526998195797
1758301353248985600,8.297985595703125,-0.487156324955821,-0.6036182198226452,1.1541425628393889
1758301353258959600,8.307959716796875,-0.44345461893863974,-0.40220658968389034,0.632318098475784
1758301353268932600,8.3179326171875,-0.32352365972176195,0.13379004628658295,0.20481011347062886
1758301353278906600,8.32790673828125,-0.20464469377584754,0.7733148612707853,-0.025443680735630914
1758301353288880600,8.337880615234376,-0.11785013435482979,1.2722738522231578,-0.16444193579033017
1758301353298854700,8.347854736328125,0.03966558236889541,1.7348796732902525,-0.3670141706736758
1758301353308828700,8.35782861328125,0.2469717504389584,2.0869594192802903,-0.5142978682510555
1758301353318801400,8.367801513671875,0.4109433653037995,2.2531144425988194,-0.621160890775919
1758301353328775400,8.377775390625,0.5465028324157,2.3067332200616595,-0.6502984301939606
1758301353338749400,8.38774951171875,0.5854944610457867,2.2783500061422584,-0.5759738781044259
1758301353348723500,8.397723388671874,0.7450561505138874,2.1653163321584463,-0.4142729481179267
1758301353358696400,8.407696533203126,0.8322897589392959,1.9968997936487196,-0.352361558606103
1758301353368670500,8.41767041015625,0.7046018289200962,1.8991677336931228,-0.34782895667776464
1758301353378644500,8.42764453125,0.6484498797178269,1.9562667544871568,-0.3175303741237148
1758301353388618500,8.437618408203125,0.6941331880062818,2.0153508116185663,-0.1196557772709988
1758301353398592300,8.44759228515625,0.5237614237755537,2.019158387207985,0.0690885511321947
1758301353408565200,8.457565185546875,0.2579156076490879,2.0621102247059344,0.2259483246978372
1758301353418539300,8.467539306640624,0.1459995395183563,2.0462053840875623,0.3488724013160914
1758301353428513300,8.47751318359375,0.143082336897403,1.9905425335764884,0.4520305049084127
1758301353438487300,8.4874873046875,0.043251843357831235,1.9368173731297254,0.4314433151600882
1758301353448460300,8.497460205078125,-0.05568257812485099,1.8224761236786842,0.4512162659160793
1758301353458434300,8.507434326171875,-0.21510858544930814,1.8230647372215985,0.6531034046120942
1758301353468408300,8.517408203125,-0.10238792293742298,1.3865233317375183,0.3271410465013236
1758301353478382300,8.52738232421875,-0.4504403131075203,1.1041343770891427,0.16750884908027946
1758301353488356400,8.5373564453125,-0.47159576773047446,0.9857909062594175,0.20296737168077378
1758301353498329300,8.547329345703124,-0.3864104701370001,0.8089876476764678,0.2666896100068465
1758301353508303400,8.557303466796874,-0.34606516187563535,0.6359808587670326,0.22690898642353713
1758301353518277400,8.56727734375,-0.40072029664888975,0.48521454323828217,0.04604355643559247
1758301353528251400,8.57725146484375,-0.4774271042324602,0.3770382461577654,-0.19453926015123724
1758301353538225400,8.587225341796875,-0.4085544974058866,0.24624913525283335,-0.49223921771068124
1758301353548198400,8.597198486328125,-0.5181701796397566,0.07954407683610916,-0.766259974323213
1758301353558172400,8.60717236328125,-0.732134125098586,-0.0007423427999019623,-1.0920989983152598
1758301353568146400,8.617146484375,-0.8024797270871699,-0.06487608453631401,-1.4156276995383201
1758301353578120200,8.6271201171875,-0.6263052679270505,-0.1853004532933235,-1.5876615517623722
1758301353588094200,8.63709423828125,-0.4274567662745714,-0.35757191366553304,-1.587345763811469
1758301353598067200,8.647067138671876,-0.5536493431694806,-0.61709320294559,-1.4644763399899006
1758301353608041200,8.657041259765625,-0.8611357680648565,-0.8942273058056831,-1.2670301063507794
1758301353618015200,8.66701513671875,-1.1126841787695885,-1.0978402453809977,-1.0821681175399571
1758301353627989200,8.6769892578125,-1.2380255456626414,-1.270861647337675,-0.860290987803787
1758301353637962200,8.686962158203125,-1.3435159646600483,-1.4585773450791835,-0.5912407496128231
1758301353647936300,8.696936279296875,-1.4383771453544496,-1.7242419594198464,-0.4588531540026888
1758301353657910300,8.70691015625,-1.3186166473336518,-2.049800193709135,-0.3405693044057116
1758301353667884300,8.71688427734375,-1.0929182788088918,-2.3284774343580006,-0.17710231459476053
1758301353677858300,8.7268583984375,-0.9252548967540264,-2.8557705393910404,-0.48796354968547817
1758301353687831300,8.736831298828125,-0.9262941766738891,-3.7393548706293105,-0.8078603972122073
1758301353697805300,8.746805419921875,-0.06835457430183887,-4.320635586437582,-1.0408877203855662
1758301353707779300,8.756779296875,1.7723187387160957,-4.16146326161325,-1.4164578667521477
1758301353717753300,8.76675341796875,2.9089065017729996,-3.512778404095769,-1.39217098223567
1758301353727727400,8.776727294921875,2.6746687068313357,-3.409581648993492,-1.0577207817647605
1758301353737700400,8.786700439453124,1.6399749457150696,-3.825024736869335,-0.8877627859666943
1758301353747674400,8.79667431640625,0.9318997415959834,-4.109606817647815,-0.6751573424447328
1758301353757648400,8.8066484375,1.086793073926866,-3.8528924024820324,-0.44377398708611726
1758301353767622100,8.8166220703125,1.634653458431363,-3.0227918241500853,0.025516426311433315
1758301353777596200,8.82659619140625,1.7904273729890583,-2.169852222022414,1.0592935109741985
1758301353787569400,8.8365693359375,1.4716665437549352,-1.4200298800200224,2.128207375469804
1758301353797543200,8.846543212890625,1.0280495007961987,-0.7015227137356996,2.9233792637616394
1758301353807517200,8.85651708984375,0.7586205654859542,-0.07649053448438643,3.180967539152503
1758301353817491200,8.8664912109375,0.8836772702187299,0.2976496521443128,2.9384914926975965
1758301353827465200,8.87646533203125,1.2653104429513216,0.24436171407103538,2.6100723160192367
1758301353837438500,8.8864384765625,1.3643138380169868,-0.2607598911643028,2.3803993447750806
1758301353847412200,8.896412109375,0.9701344874441623,-0.8942278903275728,2.141331060937047
1758301353857386200,8.90638623046875,0.26151100179255005,-1.0089379730910062,1.91756205303967
1758301353867360300,8.9163603515625,0.027209201703965662,-0.8035843273282051,1.304127664862573
1758301353877334300,8.926334228515625,-0.6043225686997175,-0.5691898805201053,0.6477139666587114
1758301353887307500,8.9363076171875,-1.074297457230091,0.09725918174684046,-0.07437661107033491
1758301353897281500,8.946281494140624,-0.8255180728472769,1.0739876606285572,-0.3345523091385141
1758301353907255300,8.95625537109375,-0.3069284987516701,1.9116934532672165,-0.1999385253788903
1758301353917229300,8.966229248046876,-0.02251636771261692,2.358210893842578,0.08092639803998172
1758301353927202600,8.97620263671875,-0.0954717138081789,2.407732172858715,0.47365357704311606
1758301353937176600,8.986176513671875,-0.7197434300810098,2.08724057430923,0.7011399980284273
1758301353947150600,8.996150634765625,-1.0978509129054843,1.5658002869576215,0.6700255325142294
1758301353957124400,9.006124267578125,-0.5859627361446619,1.0029448701560497,0.44236240325514226
1758301353967098000,9.01609814453125,0.3597479425303638,0.49253626442849635,0.06691507955063133
1758301353977071400,9.0260712890625,1.0732248595625162,0.07647709048092365,-0.3180671113489196
1758301353987045400,9.03604541015625,1.3379500010959804,-0.07629355060756206,-0.40095103666484355
1758301353997019400,9.046019287109376,1.1222136391371489,0.10322188954353331,-0.24217684431262312
1758301354006993400,9.055993408203125,0.7315640701256692,0.5014022924512624,-0.060425151275750245
1758301354016967400,9.065967529296875,0.06005436346828937,1.2102929046064614,0.22462312224237246
1758301354026940400,9.0759404296875,-0.26967275400348006,2.0039678323388097,0.49468270187266167
1758301354036914400,9.08591455078125,-0.32893677081167694,2.5226941845566033,0.6511084314025938
1758301354046888400,9.095888427734375,-0.3010140140108764,2.569179456877708,0.7153706218242645
1758301354056862500,9.105862548828124,-0.31736499096155163,2.3526783941566944,0.5874164055516943
1758301354066836500,9.11583642578125,-0.3426210127711296,2.100439078578353,0.4144155349263921
1758301354076809500,9.1258095703125,-0.18600480217039583,1.7312281650453805,0.27861740022040904
1758301354086783500,9.135783447265625,0.16628464104756713,1.2158259888142346,0.2563434994941577
1758301354096757500,9.145757568359375,0.5280686925154179,0.8018003665208816,0.22983683830266818
1758301354106731500,9.1557314453125,0.5183703783869743,0.8952771071195602,-0.10981222771927714
1758301354116705500,9.16570556640625,0.3285211026828736,1.3456892170459032,-0.488441067536734
1758301354126678500,9.175678466796874,-0.11175883174240589,1.8380822736114262,-0.5819978511016816
1758301354136652300,9.18565234375,-0.4108072447687387,2.1611434303879737,-0.53167237956319
1758301354146626300,9.195626220703126,-0.36285774511396884,2.2951742996931075,-0.3102317780807614
1758301354156600300,9.205600341796876,-0.398303737026453,2.2646856379270552,-0.016495244259573518
1758301354166574300,9.21557421875,-0.6622708997994661,2.1782009481728077,0.1479207168392837
1758301354176547300,9.22554736328125,-0.9383744905680418,1.8839619812548158,0.26805596645660695
1758301354186521300,9.235521240234375,-0.9594393442980944,1.6635300088256597,0.21266491862423717
1758301354196495400,9.245495361328125,-0.7970166393756866,1.4676286665409803,-0.031984745542705056
1758301354206469400,9.255469482421875,-0.6581524316299706,1.4630851778924465,-0.41005277313962574
1758301354216443400,9.265443359375,-0.729808970086649,1.5372247653365134,-0.8299567859470843
1758301354226416400,9.27541650390625,-0.8888771769493817,1.1611463041216135,-1.0386367265883834
1758301354236390400,9.285390380859376,-0.8546773857057094,0.3000391776293516,-0.7244542381204664
1758301354246364400,9.295364501953125,-0.9175421304196119,-0.5581394941955804,-0.40681203765273094
1758301354256338400,9.30533837890625,-1.0419681360334156,-1.158385022714734,-0.2515693073622882
1758301354266312400,9.3153125,-1.0411286164693534,-1.493765562838316,-0.07035290851220488
1758301354276285400,9.325285400390625,-1.1487691261727362,-1.8065443950533866,0.13527465882115064
1758301354286259500,9.335259521484375,-1.3776485358864068,-2.210552481201291,0.13719766277298331
1758301354296233500,9.3452333984375,-1.559475175589323,-2.6041853038072587,-0.03610942425727844
1758301354306207500,9.35520751953125,-1.474120951169729,-2.812518257641792,-0.3127763479970395
1758301354316181500,9.365181396484376,-1.5133710115402936,-2.738867330497503,-0.6178436559867113
1758301354326155500,9.375155517578126,-1.2219991244912147,-2.153151847112179,-1.3263628775462508
1758301354336128300,9.385128173828125,-0.6102642337083816,-1.8432044389307498,-1.962192929665744
1758301354346102300,9.395102294921875,0.8526030636496842,-1.7310019550740718,-1.0159967324960977
1758301354356076300,9.405076171875,2.287854478199035,-1.990649501082301,0.8431994216188788
1758301354366050300,9.41505029296875,1.8442349510222673,-3.316903949818015,1.9759294863343237
1758301354376024000,9.425024169921874,1.6841706457942722,-4.4837481733202935,2.5942685976877806
1758301354385997000,9.4349970703125,1.5389847607463598,-5.406511837780475,1.610405590751022
1758301354395971000,9.44497119140625,0.5654213948320597,-5.701719941991567,-0.4480379281409084
1758301354405945000,9.454945068359375,0.6426274571746587,-4.561331763738393,-1.1288407291267066
1758301354415919000,9.464919189453125,0.7775589285813271,-2.731628026893735,-0.18515863366983829
1758301354425893000,9.47489306640625,0.8374192307822406,-0.6610977643668651,0.6467027437895536
1758301354435866000,9.4848662109375,0.8732160088937729,1.1118646790802478,0.28909071730934083
1758301354445840100,9.494840087890625,0.5879688152700663,2.3226573499023915,-0.6339876391232013
1758301354455814100,9.504814208984374,0.42136254105269905,2.916283752542734,-0.94928327646479
1758301354465788200,9.5147880859375,0.7240981181591749,2.4550351913034913,-0.2884141332220286
1758301354475762200,9.52476220703125,1.3381155669212341,1.5737942083209753,0.3620277970958501
1758301354485735200,9.534735107421875,1.850617345535755,1.051740172985196,0.5087229176629334
1758301354495709200,9.544709228515625,1.8855002967379986,0.7256184595942496,0.44971484837718306
1758301354505683200,9.55468310546875,1.4292850534908472,0.46834524150192736,0.17180822677463292
1758301354515657200,9.5646572265625,0.9897527956277131,0.3272363966345787,0.06663052698820829
1758301354525631200,9.57463134765625,0.4253869742631912,0.22991934722065924,0.515855180695653
1758301354535604000,9.58460400390625,-0.16991627554818986,-0.031438509836792944,1.0585664388086646
1758301354545578000,9.594577880859376,-0.5433792935676872,-0.2292716969668865,1.0256288495205341
1758301354555552000,9.604552001953126,-0.6002145488590002,-0.25305823074579237,0.5528718559909611
1758301354565526000,9.614526123046875,-0.5601356364488601,-0.06502922927141189,0.10493570772409438
1758301354575500000,9.6245,-0.4205325199693441,0.4321756114900112,-0.2496234339915216
1758301354585473000,9.63447314453125,-0.24271043973267076,0.9688058691889047,-0.4647906177602708
1758301354595447000,9.644447021484375,-0.17798501571342348,1.5439391682833432,-0.4839773295935243
1758301354605421000,9.654421142578125,0.11454276337251067,2.066599352818727,-0.5064973140353337
1758301354615395000,9.66439501953125,0.3764173377804458,2.3377263242185116,-0.4818973084490746
1758301354625369000,9.674369140625,0.4453926743291318,2.4220856923818586,-0.2816569140467793
1758301354635343000,9.684343017578126,0.41999592887461185,2.430100656533241,-0.018413005780708043
1758301354645316000,9.694316162109375,0.3771668409734964,2.4335487511605023,0.043561895687691865
1758301354655290000,9.7042900390625,0.5171551573783159,2.4272405909270045,-0.1689268991846591
1758301354665264000,9.71426416015625,0.6763203218095004,2.4206091900885105,-0.4147064076317474
1758301354675238100,9.724238037109375,0.7043845329076052,2.3196540764331814,-0.5440896703267469
1758301354685212200,9.734212158203125,0.6428560052335262,2.143748058950901,-0.6119756407361477
1758301354695185200,9.74418505859375,0.6040367374956608,1.9150041852504014,-0.5536776924811303
1758301354705159200,9.7541591796875,0.5318371782034635,1.7645663710236548,-0.3070958181425929
1758301354715133200,9.76413330078125,0.3214367704451084,1.6606278576433657,0.015282982392981648
1758301354725107200,9.774107177734376,0.10959551622867583,1.5877192732989787,0.2623693721875548
1758301354735081200,9.784081298828125,-0.21963819170296192,1.6302923406124115,0.499954504795745
1758301354745054000,9.794053955078125,-0.4747703061133623,1.6019108802586792,0.5122707828702405
1758301354755028000,9.804028076171875,-0.5784859705232084,1.521354411509633,0.4976937202569097
1758301354765002000,9.814001953125,-0.5559693105496466,1.3499275852680206,0.39791934081874786
1758301354774976000,9.82397607421875,-0.5428245822943747,1.1699310836017132,0.27083816278735173
1758301354784950000,9.833949951171874,-0.5083861599892378,0.9643898063123225,0.10495812048530205
1758301354794924000,9.843924072265626,-0.43058132803589105,0.7269839027285575,-0.10096722421823069
1758301354804897000,9.85389697265625,-0.4436744722343981,0.42404725009202954,-0.183466917723231
1758301354814871000,9.86387109375,-0.5079676423162222,0.09645780223608016,-0.34549934468641874
1758301354824845000,9.873844970703125,-0.5245709865927696,-0.15017887102961539,-0.6533741843774914
1758301354834819000,9.883819091796875,-0.617300123694539,-0.31213118196129797,-1.059407711938396
1758301354844793000,9.89379296875,-0.7342085932850837,-0.3872445828735828,-1.5027968644253908
1758301354854766000,9.90376611328125,-0.6924214156523346,-0.3183335437327623,-1.907265115430951
1758301354864740000,9.913739990234374,-0.5502836661286652,-0.24729133778214454,-2.2705510228291153
1758301354874714000,9.923714111328126,-0.5149117623656988,-0.2713648718088865,-2.4112721835531294
1758301354884688100,9.933688232421876,-0.5908616141021251,-0.4211684797853231,-2.388161210948229
1758301354894662100,9.943662109375,-0.6400397787690162,-0.7027683298826217,-2.2202271952584383
1758301354904636200,9.95363623046875,-0.6485571394845843,-1.0207856472730636,-1.9808822864361106
1758301354914609200,9.963609130859375,-0.6389154509142041,-1.4887386745870113,-1.6790354748629033
1758301354924583200,9.973583251953125,-0.5906351118698716,-2.055607418683171,-1.2890113442733884
1758301354934557200,9.98355712890625,-0.44931452394798393,-2.6117981168985365,-0.8657846167840063
1758301354944531200,9.99353125,-0.433496338699758,-3.1913328658223152,-0.34235096365809436
1758301354954505200,10.003505126953126,-0.4559942939728498,-3.7396921397596596,-0.1580754694983363
1758301354964478000,10.01347802734375,0.19201193363070487,-4.086511773264408,-0.0495140272914432
1758301354974452000,10.023451904296875,1.5669067868947981,-3.7041976325303314,0.2717515695715323
1758301354984426000,10.033426025390625,3.057393766453862,-3.1144711599379775,0.6695940092291682
1758301354994400000,10.04339990234375,2.9253298133075236,-3.1008646593898535,1.7936280687265096
1758301355004374000,10.0533740234375,2.1416559089772402,-3.807363407972455,2.3040587401553987
1758301355014348000,10.06334814453125,1.432572258467972,-4.514143896105885,2.226323466306925
1758301355024321000,10.073321044921874,0.7841881374627351,-4.564426222622394,1.764079172028601
1758301355034295000,10.083294921875,0.6738374189525842,-3.8259219779700038,1.290408205459267
1758301355044269000,10.09326904296875,1.0855822368323802,-2.8703438391447067,1.4701542394958436
1758301355054243000,10.1032431640625,1.336882810255885,-1.8047633568555115,1.7592210644729434
1758301355064217000,10.113217041015625,1.0513812765449284,-0.8435270461380481,1.818308190344274
1758301355074190000,10.123190185546875,0.593122252510488,-0.10036591559052467,1.6089473547667263
1758301355084164000,10.1331640625,0.4495023016050458,0.1893523590326309,1.4670663564831017
1758301355094138000,10.14313818359375,0.4727788400352001,0.014468085813522338,1.3837990213401614
1758301355104112000,10.153112060546874,0.40423005833551284,-0.3178980749249458,1.2864793415777385
1758301355114086100,10.163086181640624,0.1995386758737266,-0.5011375040352344,1.1152084365502
1758301355124060200,10.17306005859375,0.07206424247473478,-0.4014584016650915,1.0176165157176553
1758301355134033200,10.183033203125,-0.022227321638166903,-0.1651408778399229,1.0470954889845103
1758301355144007200,10.193007080078125,-0.2203724973268807,0.14241291320323943,1.0558628789383917
1758301355153981200,10.202981201171875,-0.32651918827593324,0.4771387888103723,1.071093400491774
1758301355163955200,10.212955078125,-0.3994406321018934,0.7705898202210665,1.110561633657664
1758301355173929200,10.22292919921875,-0.5970394259542227,1.0680693764954805,1.1340810409329831
1758301355183902000,10.23290185546875,-0.8025440244950354,1.2989157754331826,1.172973227776587
1758301355193876000,10.2428759765625,-0.7413198865950107,1.318977151209116,1.2438777788221835
1758301355203850000,10.25285009765625,-0.4618791142277419,1.1739105086266994,1.143296393850073
1758301355213824000,10.262823974609375,-0.21253844270035624,0.9069885877013206,0.993854385727644
1758301355223798000,10.272798095703125,0.021837153276801108,0.7968997349977492,0.713656657513231
1758301355233772000,10.28277197265625,0.2354278815090656,0.7878314624011516,0.25002624263875184
1758301355243745000,10.2927451171875,0.3294534881621599,0.9856681566625833,-0.14700183929554186
1758301355253719000,10.302718994140625,0.33320202704071994,1.3766963497281073,-0.3573979818707332
1758301355263693000,10.312693115234374,-0.006810264536738395,1.7719675871908664,-0.14218124160552398
1758301355273667000,10.3226669921875,0.15652926296964287,2.2859137193948027,0.1356842168695759
1758301355283641000,10.33264111328125,0.3811505037821829,2.9018443083018064,0.40085996084790676
1758301355293615000,10.342614990234376,0.26073534124493597,3.208628868538141,0.6107772247318178
1758301355303588000,10.352588134765625,0.1285131287969649,3.0923826622486112,0.6185575764097273
1758301355313562000,10.36256201171875,-0.022176760494709014,2.7837615342348814,0.5451544134814292
1758301355323536100,10.3725361328125,0.014195041025802492,2.417398411348462,0.405695746973902
1758301355333510100,10.38251025390625,0.14775997331961988,1.9854992787122725,0.12831612665383144
1758301355343484200,10.392484130859375,0.28797457276098426,1.547552098083496,-0.011069894742593168
1758301355353457200,10.40245703125,0.22936989664435387,1.3364327284008264,-0.09912775209769606
1758301355363431200,10.41243115234375,-0.024312603479623794,1.4634879134744405,-0.20348248159606008
1758301355373405200,10.4224052734375,-0.30128420925438404,1.6817770286560059,-0.35434487791042774
1758301355383379200,10.432379150390625,-0.4513211145300418,1.9090595976322888,-0.5877031135385856
1758301355393353200,10.442353271484375,-0.49187706986740226,1.9998200650095939,-0.5482878892015666
1758301355403327200,10.4523271484375,-0.3922738822776824,1.9857360100775956,-0.3066995853666216
1758301355413300200,10.46230029296875,-0.6745435213953256,1.8504045795679092,-0.10557769542206079
1758301355423274200,10.472274169921874,-1.1318623419702052,1.5625012454122305,-0.06330430517494678
1758301355433248300,10.482248291015624,-1.1701553938768803,1.3568307887852191,-0.08247600210215895
1758301355443222300,10.49222216796875,-1.0322007752567528,1.1928402500241995,-0.005861402846686542
1758301355453196300,10.5021962890625,-0.8484645025402306,1.3546084365606308,-0.07830394058190286
1758301355463170300,10.51217041015625,-0.8255962526500225,1.5507862576991318,-0.37701990678347647
1758301355473143300,10.522143310546875,-1.0283184539306909,1.3101479480654001,-0.6969285908784717
1758301355483117300,10.532117431640625,-1.1151344945311545,0.6474585305929184,-0.8778543362189084
1758301355493091000,10.542091064453125,-1.1143459745019673,-0.02695873407423496,-0.7287601186208427
1758301355503065000,10.552065185546875,-1.1101812560379505,-0.3551683596551418,-0.4540560193866491
1758301355513039000,10.5620390625,-1.1992583734381943,-0.5086702376276254,-0.19938648098669945
1758301355523012000,10.57201220703125,-1.1721254518408328,-0.6533662933319807,-0.005088628375902772
1758301355532986000,10.581986083984376,-0.9651660513818263,-0.6369920816361904,0.22613076859265566
1758301355542960000,10.591960205078125,-1.1605010650206355,-0.9237614433258772,0.15458280507698655
1758301355552934100,10.60193408203125,-1.4038380391538143,-1.5017185676693916,-0.19474661929160356
1758301355562908200,10.611908203125,-1.4189526061773299,-2.0552976220816372,-0.6538222934711724
1758301355572882200,10.621882080078125,-1.3985352565705775,-2.1829589563548564,-0.8818751892328262
1758301355582855200,10.631855224609374,-1.135927180256322,-1.931883423858881,-1.0116163985200226
1758301355592829200,10.6418291015625,-0.8337083205003291,-2.2852502870500087,-1.2313725175142287
1758301355602803200,10.65180322265625,0.4065472492367029,-2.7131577197015284,-0.4025744731482118
1758301355612777200,10.661777099609376,1.4440437928140162,-3.227777221122384,1.0566504491195081
1758301355622751200,10.671751220703126,1.268189213258028,-4.170931347182393,2.2917880182556805
1758301355632725200,10.681725341796875,1.3597843778938055,-5.071753813469409,2.726092604598403
1758301355642698200,10.6916982421875,0.8139736193954944,-6.303226868748665,1.2702497990496455
1758301355652672300,10.70167236328125,-0.04755436285734176,-6.56465428391099,-0.6632103726066648
1758301355662646300,10.711646240234375,0.5968536210585386,-4.831173371502757,-0.8912124880291521
1758301355672620300,10.721620361328124,1.2044278119653462,-2.555847097095847,0.20388116205744444
1758301355682594300,10.73159423828125,1.3871844259947537,-0.5741752677172423,0.60114956468679
1758301355692568300,10.741568359375,1.1465735888898372,0.8036392723858355,-0.08922277294863015
1758301355702541000,10.751541015625,0.5814269924111664,1.6935908005684612,-0.9078077951297163
1758301355712515000,10.76151513671875,0.6272112768560648,2.1210738703280687,-0.9186415430288761
1758301355722489000,10.771489013671875,1.0840899524480103,1.7972773850142956,-0.252102939314954
1758301355732463000,10.781463134765625,1.4440677582114934,1.2625263651907443,0.4200860183108598
1758301355742437000,10.79143701171875,1.563618851265311,0.8088198898941278,0.9698748866599053
1758301355752411100,10.8014111328125,1.4334363279514013,0.5043506208628415,1.244945700314641
1758301355762384100,10.811384033203124,1.1542338943846524,0.2736982831925154,1.1623945506170392
1758301355772358100,10.821358154296876,0.8871159394305199,0.0034083471387624737,1.079181356814131
1758301355782332200,10.831332275390626,0.5623029705505818,-0.15130524471104145,1.075474757381156
1758301355792306200,10.84130615234375,0.030942177687212823,-0.22861644792854785,1.2593372137606142
1758301355802280200,10.8512802734375,-0.34815767717547713,-0.12792612268924713,1.0724088670045138
1758301355812254200,10.861254150390625,-0.4846335284799337,0.11936696865856647,0.8229735029309988
1758301355822227200,10.871227294921875,-0.5303213668130338,0.48687166279554367,0.5766708108600229
1758301355832201200,10.881201171875,-0.34042671759724613,1.0232552522569893,0.36259745020996775
1758301355842175200,10.89117529296875,-0.03168181707337499,1.5916127736061811,0.1887398896900937
1758301355852149200,10.901149169921876,0.15195406400859354,2.0615373932540417,0.032432050918787717
1758301355862123300,10.911123291015626,0.18697218589782713,2.345062658455968,-0.2148453131369315
1758301355872097300,10.92109716796875,0.16868059627339244,2.431907413694262,-0.36179318462237714
1758301355882070300,10.9310703125,0.14151640275493263,2.373186929178238,-0.38195933594703674
1758301355892044300,10.941044189453125,0.1731307075500488,2.2133581862717864,-0.3758841807518154
1758301355902018300,10.951018310546875,0.2006843387775123,2.06752640453577,-0.4394580235831439
1758301355911992300,10.960992431640625,0.32199615789353847,1.9127549450188874,-0.47776422723233697
1758301355921966300,10.97096630859375,0.43634135286733505,1.7831021446675062,-0.5586349495623261
1758301355931940400,10.9809404296875,0.3696760468266904,1.7769956444859503,-0.6252260943882167
1758301355941913000,10.9909130859375,0.2385973053254187,1.8498405159443616,-0.6499047547012567
1758301355951887000,11.00088720703125,0.1563344710499048,1.986393597203493,-0.6135524615988135
1758301355961861000,11.010861083984375,0.19945450472161172,2.0724124230116603,-0.4982277540683746
1758301355971835100,11.020835205078125,0.24728666160702703,2.0626976692050696,-0.26000077989269044
1758301355981809200,11.03080908203125,0.1047603511571884,2.026642605483532,-0.10293653326351195
1758301355991783200,11.040783203125,0.07528627326115965,1.9196347676604986,0.02001187407840043
1758301356001756200,11.050756103515624,0.12649521310329437,1.8157412624657152,0.14571316032502798
1758301356011730200,11.060730224609374,0.0973309318087995,1.5008558133602141,0.030254743412323294
1758301356021704200,11.0707041015625,-0.19934403008446097,1.2064590255320071,-0.014798267615959048
1758301356031678200,11.08067822265625,-0.28123291648104787,0.9501485149919986,-0.028841661744005976
1758301356041652200,11.09065234375,-0.2569004392571747,0.7622890248656272,0.10486655147802085
1758301356051626200,11.100626220703125,-0.2138843043513596,0.6967109295397996,0.27806192176211625
1758301356061599200,11.11059912109375,-0.14374489245936273,0.6505740322649478,0.37488863037582487
1758301356071573200,11.1205732421875,-0.24750395761951802,0.5185895740956068,0.4073460714641958
1758301356081547300,11.13054736328125,-0.36449031475186344,0.48413610035181043,0.37901031341571356
1758301356091521300,11.140521240234374,-0.3997545203566551,0.4974094234228134,0.33255222136247903
1758301356101495300,11.150495361328124,-0.43174905664101243,0.5316822799026966,0.2078773920867592
1758301356111469300,11.16046923828125,-0.5998441081114113,0.5467682053536176,-0.025989962107315658
1758301356121442300,11.1704423828125,-0.804351950699836,0.5144020592778921,-0.27392566220760345
1758301356131416300,11.180416259765625,-0.9160279264643788,0.43492052628397937,-0.5178048534587025
1758301356141390300,11.190390380859375,-0.8459507661536335,0.293389656612277,-0.7829445671424269
1758301356151364400,11.2003642578125,-0.6975666695863008,0.1250210488975048,-1.019386301869154
1758301356161338400,11.21033837890625,-0.5785492450177669,-0.053576107364892954,-1.2399036144942044
1758301356171312400,11.2203125,-0.5988125731065869,-0.16865385439693928,-1.2976587611094117
1758301356181285000,11.23028515625,-0.4633605849571526,-0.3018722382754087,-1.3190996085450053
1758301356191259100,11.240259033203126,-0.4328723615825176,-0.5037994167208671,-1.2979508759237826
1758301356201233200,11.250233154296875,-0.7040104388982057,-0.6397293976455927,-1.1754007471844554
1758301356211207200,11.260207275390625,-0.8659230023413896,-0.8528104227900505,-1.1161544852286576
1758301356221181200,11.27018115234375,-0.8814993416577577,-1.0643149923980235,-1.0556896412633359
1758301356231155200,11.2801552734375,-0.9365199487425386,-1.2583482027232646,-1.006684495075792
1758301356241128200,11.290128173828125,-1.0836388476796448,-1.4124264192789793,-0.9698355044975876
1758301356251102200,11.300102294921874,-1.1143483125895262,-1.501010711660981,-0.8851667781241238
1758301356261076200,11.310076171875,-1.1583629570133984,-1.5425696334958074,-0.6696708007924258
1758301356271050200,11.32005029296875,-1.3160790916800498,-1.6422183407276867,-0.45954321862608194
1758301356281024300,11.330024169921876,-1.2954589129775762,-1.988702458667755,-0.21363011039458213
1758301356290998300,11.339998291015625,-0.7349656952627003,-2.475541388237476,-0.07790752514284104
1758301356300972300,11.34997216796875,0.6003513269811869,-2.6716554964900014,-0.49935741568543013
1758301356310945300,11.3599453125,1.7192916435360908,-2.925864066314697,-1.2743852914191782
1758301356320919300,11.369919189453125,2.0143248295716942,-2.994526099130511,-1.4021842805974185
1758301356330893300,11.379893310546874,1.9700249384656547,-3.604806699451804,-1.214573942926526
1758301356340867300,11.389867431640624,1.6411736539803445,-4.327936849361658,-0.40728619450312104
1758301356350841300,11.39984130859375,1.1810732398629187,-4.795418752032518,0.3834730284456163
1758301356360815400,11.4098154296875,0.8277890865191817,-4.683051433002949,0.5517414637215435
1758301356370788400,11.419788330078125,0.8193705100029707,-3.892423617881536,0.6186550454348325
1758301356380762400,11.429762451171875,0.945716670024395,-2.866369090294838,0.8715520212043076
1758301356390736400,11.439736328125,1.1784443526640533,-1.8518536093324423,1.3269132049053907
1758301356400710400,11.44971044921875,1.385354287958145,-0.963823989123106,1.8881912893876431
1758301356410684400,11.459684326171875,1.402096748444438,-0.509940988215804,2.046509189339727
1758301356420658400,11.469658447265624,1.4464301034286617,-0.12830489287376404,2.0457127782650293
1758301356430631400,11.47963134765625,1.3229004621326923,0.08348258532881736,2.011168849758804
1758301356440605400,11.48960546875,1.071028226301074,0.03459668160676956,1.794250292278081
1758301356450579500,11.499579345703125,0.8455359017424285,-0.1347153444379568,1.520006942423433
1758301356460553500,11.509553466796875,0.6808988817714154,-0.3762327749937773,1.2873524711504578
1758301356470527500,11.519527587890625,0.6088362467318773,-0.5232148958086967,1.1064992065243422
1758301356480501500,11.52950146484375,0.5994967559784651,-0.4910574240475893,0.9498371840205043
1758301356490474500,11.539474609375,0.6452922924697398,-0.21744448105096817,0.8375345277249813
1758301356500448500,11.549448486328124,0.5215183210238814,0.2563900055170059,0.8429885553471743
1758301356510422500,11.559422607421874,0.19196268766149877,0.7504431042492389,0.8885030098747462
1758301356520396300,11.569396240234376,-0.07995499572455883,1.2718354608058928,0.8353486350532621
1758301356530370300,11.579370361328126,-0.21944836821928618,1.7327350624769926,0.7237220513883977
1758301356540344300,11.58934423828125,-0.30845337023138997,2.0554712250828744,0.6078843893671408
1758301356550318300,11.599318359375,-0.40036841447129845,2.0281278756052252,0.5852279190640897
1758301356560291300,11.609291259765625,-0.585104658010602,1.6037281588137149,0.6093037181131541
1758301356570265300,11.619265380859375,-0.8828488565705717,0.9369880046457052,0.5768305314663797
1758301356580239400,11.6292392578125,-0.909416107109189,0.377106050696969,0.3218730429705232
1758301356590213400,11.63921337890625,-0.5536224551625549,0.021955226698517797,0.023475915193464605
1758301356600187400,11.6491875,-0.1697591852903366,-0.26373043140769004,-0.08441526306904852
1758301356610161400,11.659161376953126,0.09722937113046645,-0.3760965813934803,-0.2718074096783064
1758301356620134400,11.669134521484375,0.2403483867764473,-0.2122708778053522,-0.4568522259764373
1758301356630108400,11.6791083984375,0.08596665722951292,0.3070756521373987,-0.44967616033460944
1758301356640082400,11.68908251953125,-0.2665000422514975,0.9451461766600608,-0.1968762517314404
1758301356650056400,11.699056396484375,-0.02233896531909704,1.4604811328738927,0.03861589978602715
1758301356660030500,11.709030517578125,0.1105896418325603,1.8595429947912692,0.21802593420073388
1758301356670004500,11.71900439453125,-0.01370477329082787,2.0544225928127764,0.34531901968345047
1758301356679978500,11.728978515625,-0.07810089229047298,2.0355115561157464,0.3874292552581057
1758301356689951500,11.738951416015626,-0.10430734669268131,1.905620270833373,0.41564723214581606
1758301356699925500,11.748925537109375,-0.14270985032320022,1.7581097422301768,0.29263978809304536
1758301356709899500,11.7588994140625,-0.21030345018990337,1.6088053159475326,0.10526722296709194
1758301356719873500,11.76887353515625,-0.21972236285507676,1.387204299739003,0.00545727902520448
1758301356729847600,11.77884765625,-0.26987967475242913,1.4056097250014543,-0.12270626914910972
1758301356739821300,11.7888212890625,-0.4299830698817968,1.619405035895109,-0.26464407565388826
1758301356749794300,11.798794189453124,-0.6173293497890233,1.8181003928124904,-0.3010652692740783
1758301356759768300,11.808768310546874,-0.5547452486474067,1.9566548770219085,-0.28371771903410553
1758301356769742300,11.818742431640626,-0.505699258992821,1.9269570733726022,-0.26483360687661917
1758301356779716400,11.82871630859375,-0.39458369359001516,1.798546382036805,-0.21553550562448798
1758301356789690400,11.8386904296875,-0.25938378050550814,1.3369248958319424,-0.2182164152715355
1758301356799664400,11.848664306640625,-0.09846161633916199,0.7461760944545268,-0.3377481460377574
1758301356809637400,11.858637451171875,0.03874035728275776,0.6167664552092552,-0.42594840753823515
1758301356819611400,11.868611328125,0.049369303324818606,0.9107628455430269,-0.40769963414222
1758301356829585400,11.87858544921875,-0.14278174651563166,1.514713073799014,-0.3765430099867284
1758301356839559400,11.888559326171874,-0.35814248009510335,2.265079605680704,-0.42653015294894575
1758301356849533400,11.898533447265624,-0.6226624544452876,2.773025036165118,-0.45515024436414236
1758301356859507200,11.908507080078126,-0.7675234183877706,2.99967573697865,-0.3553017767764628
1758301356869481200,11.918481201171875,-0.9231318401854485,2.7981086240172384,-0.30141324246153234
1758301356879454500,11.928454345703125,-0.9279348565530031,2.0812001251012084,-0.2713784619428217
1758301356889428500,11.938428466796875,-0.847109507734701,0.8489607616245746,-0.12836254134513436
1758301356899402500,11.948402587890625,-0.7744418925393373,0.16288111621439455,0.049726519264653324
1758301356909376300,11.958376220703125,-0.8977046265274286,-0.22501287047863006,0.04935907419174909
1758301356919350300,11.968350341796874,-1.0071545968055724,-0.4357394414514303,-0.059512438611313695
1758301356929324300,11.97832421875,-0.931256694452092,-0.46092648967802524,-0.09897891821153461
1758301356939297500,11.988297607421876,-1.0448135885924101,-0.24208792392015455,-0.2900273405723274
1758301356949271600,11.998271484375,-1.2585475246876479,0.043057051438093186,-0.4653713402576744
1758301356959245600,12.00824560546875,-1.276163845399022,-0.2402209610044956,-0.6223330032952129
1758301356969219300,12.01821923828125,-1.2051304072767495,-0.23295126226246354,-0.6730191613722593
1758301356979193300,12.028193359375,-1.2481260839164257,0.4264209934860468,-0.7421807412080467
1758301356989167400,12.03816748046875,-1.297268008226156,0.01710837118923664,-0.861763909900561
1758301356999141400,12.048141357421875,-1.2872709303468466,-0.13711714488267898,-0.8196554644241929
1758301357009114400,12.0581142578125,-1.2296885099500416,-0.17253157261312008,-0.7280269089754671
1758301357019088400,12.06808837890625,-1.311475981798768,-0.3797100957155227,-0.6984532431624829
1758301357029062100,12.078062255859376,-1.4051269099205732,-0.6800275057643651,-0.9410939055945724
1758301357039036200,12.0880361328125,-1.552522287711501,-0.9889245281100273,-1.1669943725626915
1758301357049010200,12.09801025390625,-1.9067904836565255,-1.3597861314594746,-1.5549806406490503
1758301357058984200,12.107984130859375,-1.7094564782202242,-1.7668454218715428,-1.8951706268809734
1758301357068958200,12.117958251953125,-0.4874111764997244,-2.1501158404171465,-1.6002107983425258
1758301357078931500,12.127931396484374,0.2705787629324943,-2.7660902684658764,-0.8629729203641414
1758301357088905200,12.1379052734375,-0.2259083580136299,-3.62499374743402,-0.3587501636646688
1758301357098879200,12.147879150390626,-0.5346170912455767,-4.24307479237318,-0.28660839897431434
1758301357108853200,12.157853271484376,-0.8758346669595688,-4.958819508206844,-1.0475466668181121
1758301357118827300,12.1678271484375,-0.9467880255829543,-5.9046460683465,-1.3933376879274844
1758301357128801300,12.17780126953125,-0.24325170700252055,-6.336085182255506,-0.8196957964345812
1758301357138774300,12.187774169921875,0.40100656624436376,-5.514700994342565,-0.24166071148402987
1758301357148748300,12.197748291015625,0.42894846613705157,-3.8252655598878857,-0.098074151391536
1758301357158722300,12.207722412109375,0.6076373923361301,-1.962521723228693,0.09610380116663873
1758301357168696300,12.2176962890625,0.8582353704482316,-0.6607721856743097,0.5805304088976234
1758301357178670300,12.22767041015625,0.8192804936319589,-0.23949966099262235,0.4479539761845022
1758301357188644400,12.237644287109376,0.88084233905375,0.023412439769506452,0.2885843752223998
1758301357198618400,12.247618408203126,1.1919090335886924,0.34108781185448167,0.25629158664382995
1758301357208591400,12.25759130859375,1.3189923487782478,0.6544675325721502,0.134693570997566
1758301357218565400,12.2675654296875,1.1629022078782318,0.3969225118011236,0.3256978619556874
1758301357228539400,12.277539306640625,1.130190024843812,0.013047697621583938,0.3177847507435828
1758301357238513200,12.28751318359375,1.2914660439491272,-0.2088502557069063,0.07838204731941223
1758301357248487200,12.297487060546874,1.322757254269719,-0.23044658596515655,-0.08818477167040109
1758301357258461200,12.307461181640624,1.3067343402296303,-0.05783727194070816,-0.0015176380213350056
1758301357268435200,12.317435302734374,1.2799977244734764,-0.004582651615142822,0.2539665777623653
1758301357278408200,12.327408203125,1.2300707872658967,0.000025134441256523132,0.4269412179678678
1758301357288382200,12.33738232421875,1.2382733829438686,0.1569061334580183,0.5844149221807718
1758301357298356200,12.347356201171875,1.2411416318565607,0.22765257133245467,0.7493820508889854
1758301357308330200,12.357330322265625,1.0746319498814643,0.487693500572443,0.7011542457494885
1758301357318304300,12.36730419921875,0.9851531198125332,0.6335054085642099,0.5813555346101522
1758301357328278300,12.3772783203125,0.8466185824126005,0.835726016998291,0.5156619231458753
1758301357338252300,12.387252197265624,0.6514882245004177,1.0040075309515,0.5323679971445352
1758301357348225300,12.397225341796876,0.5605887870438396,1.1870265953093766,0.3922339155934751
1758301357358199300,12.40719921875,0.6873392900824546,1.2533183918625115,0.12060089436769485
1758301357368173300,12.41717333984375,0.8993993016161024,1.2226526199638843,-0.2741575712673366
1758301357378147800,12.42714794921875,0.9209797036528586,1.2318430576354265,-0.7166721328768879
1758301357388121900,12.437121826171875,0.9061689418815075,1.214857436043024,-1.017000502711162
1758301357398096000,12.447095947265625,0.8574993843238801,1.280595105844736,-1.25668304599002
1758301357408068900,12.45706884765625,0.8470960637312382,1.3476654855549335,-1.360165778426826
1758301357418043000,12.46704296875,0.8565752552162855,1.3731991552621126,-1.3411176713466644
1758301357428017000,12.477016845703124,0.8761702555894851,1.3051193062484263,-1.2613682811968028
1758301357437991000,12.486990966796874,0.8149444371890276,1.2145184133470057,-1.0900259914334862
1758301357447965000,12.49696484375,0.6959514894746244,1.1429916387498378,-0.9093317167613655
1758301357457939000,12.50693896484375,0.5142698842655867,1.1316805556625127,-0.7706207998812198
1758301357467913000,12.516912841796875,0.3323211525529623,1.1431138038247823,-0.46200029292199757
1758301357477886000,12.526885986328125,0.16385661018304526,1.2286854703873396,-0.18202530408017337
1758301357487860000,12.53685986328125,0.016126374414563178,1.369033852276206,0.07134935393733903
1758301357497834000,12.546833984375,0.08165829251110553,1.6500047568202019,0.2533209002699703
