time,seconds_elapsed,z,y,x
1758301345000795600,0.049795654296875,-0.4962161183357239,-0.22282683849334717,0.2009282261133194
1758301345010768400,0.059768310546875,-0.5473017692565918,-0.1418982297182083,0.14707939326763153
1758301345020742400,0.069742431640625,-0.6516574621200562,0.18775664269924164,-0.015337486751377583
1758301345030715400,0.07971533203125,-0.8903903365135193,0.5480075478553772,-0.2701605260372162
1758301345040689400,0.089689453125,-1.1784851551055908,0.7842216491699219,-0.5972158908843994
1758301345050662400,0.099662353515625,-1.4288556575775146,0.8820165395736694,-0.937332272529602
1758301345060635600,0.1096357421875,-1.6433812379837036,0.8354535698890686,-1.2996635437011719
1758301345070609700,0.119609619140625,-1.7870897054672241,0.8230539560317993,-1.6234512329101562
1758301345080582700,0.129582763671875,-1.7938873767852783,0.7776175141334534,-1.7617701292037964
1758301345090556700,0.139556640625,-1.678425908088684,0.5201305150985718,-1.874172329902649
1758301345100529400,0.149529296875,-1.540630578994751,0.2527885437011719,-1.7744145393371582
1758301345110503400,0.15950341796875,-1.4649454355239868,0.04384329169988632,-1.4452766180038452
1758301345120476400,0.169476318359375,-1.4282772541046143,-0.2818354666233063,-1.1363214254379272
1758301345130450400,0.179450439453125,-1.3866268396377563,-0.7690867185592651,-0.733684778213501
1758301345140423400,0.18942333984375,-1.2409852743148804,-1.3366700410842896,-0.4299486577510834
1758301345150397400,0.1993974609375,-0.9429646730422974,-1.6924651861190796,-0.55142742395401
1758301345160370700,0.20937060546875,-0.7656916379928589,-1.8496744632720947,-0.9166778326034546
1758301345170343400,0.219343505859375,-0.7611979246139526,-1.8617233037948608,-1.297013759613037
1758301345180317400,0.2293173828125,-0.802266538143158,-1.7496931552886963,-1.4351881742477417
1758301345190290400,0.23929052734375,-0.8617053031921387,-1.6012707948684692,-1.3720358610153198
1758301345200264400,0.249264404296875,-0.9130420088768005,-1.1615394353866577,-1.3130981922149658
1758301345210237400,0.259237548828125,-0.7131323218345642,-0.059277866035699844,-1.2357113361358643
1758301345220211500,0.26921142578125,-0.1463882327079773,1.6433638334274292,-1.1450375318527222
1758301345230184400,0.279184326171875,0.657967209815979,3.5496184825897217,-0.8111221790313721
1758301345240158500,0.289158447265625,1.5066910982131958,4.88277530670166,-0.36505791544914246
1758301345250131700,0.299131591796875,2.135633707046509,5.262791156768799,0.10954927653074265
1758301345260105700,0.309105712890625,2.4735589027404785,4.77093505859375,0.3779738247394562
1758301345270078500,0.319078369140625,2.564997673034668,3.9484684467315674,0.35027816891670227
1758301345280051500,0.329051513671875,1.914069652557373,2.3727474212646484,0.3234492242336273
1758301345290025500,0.339025390625,0.8065158724784851,1.628949522972107,0.15215927362442017
1758301345299998500,0.34899853515625,0.0032279493752866983,2.1433792114257812,-0.1883021593093872
1758301345309972500,0.358972412109375,-0.2923785448074341,3.2224478721618652,-0.4447411894798279
1758301345319945500,0.368945556640625,-0.3532876968383789,4.053927898406982,-0.4852398633956909
1758301345329919500,0.37891943359375,-0.2889537215232849,4.556248188018799,-0.5775056481361389
1758301345339892700,0.388892822265625,-0.2515810430049896,4.6586737632751465,-0.6342933177947998
1758301345349866800,0.39886669921875,-0.26843729615211487,4.524588584899902,-0.5216571688652039
1758301345359839500,0.408839599609375,-0.48042356967926025,4.012765407562256,-0.5981226563453674
1758301345369813000,0.41881298828125,-0.7282332181930542,3.9452898502349854,-0.46271052956581116
1758301345379787000,0.428787109375,-1.3219002485275269,4.031529426574707,-0.203980952501297
1758301345389760000,0.438760009765625,-2.0185320377349854,3.58231258392334,-0.03316161781549454
1758301345399734000,0.448734130859375,-2.642923355102539,3.806223154067993,0.019664844498038292
1758301345409707000,0.45870703125,-3.1297988891601562,4.063898086547852,-0.03049815632402897
1758301345419681000,0.468680908203125,-3.473271369934082,4.089210033416748,-0.36117860674858093
1758301345429653800,0.47865380859375,-3.7590866088867188,3.9437825679779053,-0.6360511183738708
1758301345439627800,0.488627685546875,-4.097082138061523,3.7709035873413086,-0.8370507955551147
1758301345449601000,0.49860107421875,-4.5135111808776855,3.5384609699249268,-0.9601964354515076
1758301345459574000,0.508573974609375,-4.906336784362793,3.0883915424346924,-1.1297582387924194
1758301345469548000,0.518548095703125,-5.185177803039551,2.715461492538452,-1.2058876752853394
1758301345479521000,0.52852099609375,-5.253876686096191,2.6797311305999756,-1.2532799243927002
1758301345489495000,0.5384951171875,-5.242895126342773,2.7367615699768066,-1.294285535812378
1758301345499468000,0.548468017578125,-5.312760353088379,2.8075320720672607,-1.3367458581924438
1758301345509442000,0.558442138671875,-5.383608341217041,2.8305649757385254,-1.4511523246765137
1758301345519414800,0.568414794921875,-5.341578483581543,2.6727659702301025,-1.6143956184387207
1758301345529388800,0.578388916015625,-5.179587364196777,2.1596150398254395,-1.8874808549880981
1758301345539362000,0.588362060546875,-4.80187463760376,2.000840425491333,-1.9358446598052979
1758301345549335000,0.5983349609375,-4.5308356285095215,1.7473194599151611,-2.0151419639587402
1758301345559309000,0.60830908203125,-4.533987998962402,1.4727245569229126,-2.0985379219055176
1758301345569282000,0.618281982421875,-4.499507904052734,1.162541389465332,-2.1404261589050293
1758301345579256000,0.628256103515625,-4.409312725067139,1.0821095705032349,-2.1139376163482666
1758301345589228800,0.638228759765625,-4.126302719116211,1.2981315851211548,-1.905085563659668
1758301345599202800,0.648202880859375,-3.6778061389923096,1.5528366565704346,-1.497218132019043
1758301345609175800,0.65817578125,-3.2017059326171875,1.9120450019836426,-0.9643486142158508
1758301345619149800,0.66814990234375,-2.887420654296875,2.248464345932007,-0.15170449018478394
1758301345629123000,0.678123046875,-2.651578664779663,2.592142105102539,0.46405139565467834
1758301345639096000,0.688095947265625,-2.487356424331665,2.585859537124634,0.6868152022361755
1758301345649070000,0.698070068359375,-2.6938581466674805,2.164738178253174,0.7511414885520935
1758301345659043000,0.70804296875,-2.773611545562744,2.0567898750305176,0.9983869791030884
1758301345669017000,0.71801708984375,-1.765804409980774,2.2637431621551514,1.5222870111465454
1758301345678989800,0.72798974609375,-0.5491076111793518,2.424182891845703,1.8121787309646606
1758301345688963800,0.7379638671875,-0.22814977169036865,1.5653101205825806,1.6683509349822998
1758301345698936800,0.747936767578125,-0.9864380359649658,0.37980183959007263,0.819980263710022
1758301345708910800,0.757910888671875,-0.5271477699279785,0.03418394923210144,-0.283645361661911
1758301345718884000,0.767884033203125,0.11344685405492783,-0.6353459358215332,-0.8445976376533508
1758301345728857000,0.777857177734375,0.36391252279281616,-1.7287143468856812,-1.4786505699157715
1758301345738831000,0.7878310546875,0.253904789686203,-2.6952662467956543,-1.8897614479064941
1758301345748804000,0.79780419921875,0.08567719906568527,-3.247441530227661,-1.9518473148345947
1758301345758777900,0.80777783203125,0.09504886716604233,-3.2469067573547363,-1.6978288888931274
1758301345768750800,0.817750732421875,0.0004390132671687752,-2.911325454711914,-1.2289707660675049
1758301345778724900,0.827724853515625,-0.29328954219818115,-2.6055989265441895,-0.8352125287055969
1758301345788697900,0.83769775390625,-0.31620606780052185,-2.141876459121704,-0.49157387018203735
1758301345798671000,0.847671142578125,0.04093020781874657,-1.1887154579162598,-0.21517451107501984
1758301345808645000,0.85764501953125,-0.03875667229294777,-0.29839953780174255,-0.10724801570177078
1758301345818618000,0.8676181640625,-0.950341522693634,-0.02327689342200756,-0.1466880887746811
1758301345828592000,0.877592041015625,-1.3334251642227173,0.10036227852106094,-0.354190468788147
1758301345838564900,0.88756494140625,-1.081502914428711,0.574202299118042,-0.3308020532131195
1758301345848539000,0.897538818359375,-0.8184300661087036,1.0372705459594727,0.020023709163069725
1758301345858512000,0.907511962890625,-0.2827090620994568,1.1495070457458496,0.1316825896501541
1758301345868486000,0.91748583984375,0.05995503067970276,0.8473917841911316,0.0008536671521142125
1758301345878459000,0.927458984375,0.11256124824285507,0.11575327068567276,-0.2509743273258209
1758301345888433000,0.937432861328125,-0.08769115805625916,-0.9088765978813171,-0.4737372100353241
1758301345898406100,0.94740625,-0.3029094636440277,-1.5534414052963257,-0.5279508829116821
1758301345908379100,0.957379150390625,-0.24430423974990845,-1.0856578350067139,-0.1885281354188919
1758301345918353200,0.967353271484375,0.04689484462141991,-0.19047170877456665,0.26080119609832764
1758301345928326000,0.977325927734375,0.002952498383820057,0.44661951065063477,0.6284995675086975
1758301345938300000,0.9872998046875,-0.09237748384475708,0.5415747761726379,0.6854336857795715
1758301345948273000,0.99727294921875,-0.11266385018825531,0.33445650339126587,0.16068264842033386
1758301345958247000,1.007246826171875,-0.2032025307416916,-0.057027921080589294,0.006325838156044483
1758301345968220000,1.017219970703125,-0.11039970070123672,-0.04596008360385895,-0.02887593023478985
1758301345978194000,1.02719384765625,0.12259360402822495,-0.013568056747317314,-0.006643595173954964
1758301345988167200,1.037167236328125,0.09406779706478119,-0.361866295337677,0.22852478921413422
1758301345998140000,1.047139892578125,-0.021597284823656082,-0.7563880085945129,0.33635351061820984
1758301346008114000,1.057114013671875,-0.14475135505199432,-0.9597218036651611,0.3695739507675171
1758301346018087000,1.0670869140625,-0.2643680274486542,-0.947109043598175,0.4180980622768402
1758301346028061000,1.07706103515625,-0.32235854864120483,-0.767747700214386,0.4119083881378174
1758301346038034000,1.087033935546875,-0.38399818539619446,-0.5947266817092896,0.3490031957626343
1758301346048008000,1.097008056640625,-0.4591112732887268,-0.4179669916629791,0.2431747168302536
1758301346057981000,1.10698095703125,-0.48364219069480896,-0.13707539439201355,0.13945259153842926
1758301346067955000,1.116954833984375,-0.4676326513290405,0.17513418197631836,0.07129984349012375
1758301346077928200,1.12692822265625,-0.504799485206604,0.48246511816978455,0.06891684979200363
1758301346087901000,1.13690087890625,-0.6984437108039856,0.753690242767334,0.17210650444030762
1758301346097875000,1.146875,-0.9284950494766235,1.0178457498550415,0.33610156178474426
1758301346107848000,1.156847900390625,-1.1828196048736572,1.2163124084472656,0.601405918598175
1758301346117822000,1.166822021484375,-1.3982762098312378,1.329368233680725,0.9367370009422302
1758301346127795000,1.176794921875,-1.4493834972381592,1.3327630758285522,1.25644850730896
1758301346137769000,1.18676904296875,-0.9463925361633301,1.6805464029312134,1.1286070346832275
1758301346147742000,1.196741943359375,-0.5219970345497131,1.7002367973327637,1.05672287940979
1758301346157716000,1.206716064453125,-0.6817651391029358,1.3004695177078247,1.2094091176986694
1758301346167689000,1.21668896484375,-0.7909790277481079,0.9979096055030823,1.1413785219192505
1758301346177662000,1.226661865234375,-0.5995153188705444,1.0720336437225342,0.6841586232185364
1758301346187636000,1.236635986328125,-0.7264664173126221,1.0763128995895386,0.3601250946521759
1758301346197609000,1.24660888671875,-0.7430312633514404,0.8954832553863525,0.44973593950271606
1758301346207583000,1.2565830078125,-0.6425219774246216,1.1886543035507202,0.4525698721408844
1758301346217556000,1.266555908203125,-0.7793967127799988,1.4574910402297974,0.1451292484998703
1758301346227530000,1.276530029296875,-0.972709596157074,2.4899144172668457,-0.28253212571144104
1758301346237503000,1.2865029296875,-0.7931166887283325,2.124380111694336,-0.4461977481842041
1758301346247477000,1.29647705078125,-0.6923209428787231,1.6895314455032349,-0.4541579484939575
1758301346257450000,1.306449951171875,-0.4781695306301117,1.4654831886291504,-0.8860723376274109
1758301346267423000,1.316423095703125,-0.24741145968437195,2.0797321796417236,-0.7989161610603333
1758301346277397000,1.32639697265625,-0.012075376696884632,2.7082674503326416,-0.5546643137931824
1758301346287370000,1.336369873046875,0.36752915382385254,2.559061288833618,-0.43763235211372375
1758301346297344000,1.346343994140625,0.720468282699585,2.4433863162994385,-0.46987655758857727
1758301346307317000,1.35631689453125,1.0799612998962402,2.5179450511932373,-0.5772807002067566
1758301346317291000,1.366291015625,1.3891340494155884,2.390263795852661,-0.6858170032501221
1758301346327264000,1.376263916015625,1.6146448850631714,1.9149510860443115,-0.7953106760978699
1758301346337238000,1.386238037109375,1.7781001329421997,1.1412845849990845,-1.000792384147644
1758301346347211000,1.3962109375,1.8803623914718628,0.3492577373981476,-1.2947440147399902
1758301346357184800,1.406184814453125,1.9145894050598145,-0.3348550796508789,-1.6156812906265259
1758301346367157500,1.416157470703125,1.9302209615707397,-0.8748460412025452,-1.9672847986221313
1758301346377130200,1.426130126953125,1.8627949953079224,-1.0497658252716064,-2.2758336067199707
1758301346387104300,1.436104248046875,1.8065619468688965,-0.861063539981842,-2.1761205196380615
1758301346397077200,1.4460771484375,1.625405192375183,-1.069075107574463,-1.9682466983795166
1758301346407051300,1.45605126953125,1.2223196029663086,-1.2864866256713867,-1.927459478378296
1758301346417024300,1.466024169921875,0.8459787368774414,-1.0291094779968262,-1.6732999086380005
1758301346426998300,1.475998291015625,0.7281069159507751,-0.736972987651825,-1.3532814979553223
1758301346436971500,1.485971435546875,0.7111782431602478,-0.3183610737323761,-0.9766607284545898
1758301346446945500,1.495945556640625,0.8161677718162537,0.12460732460021973,-0.6965494751930237
1758301346456918300,1.505918212890625,0.9671877026557922,0.6269300580024719,-0.5378090739250183
1758301346466892300,1.515892333984375,1.1430164575576782,1.0612311363220215,-0.3363254964351654
1758301346476865300,1.525865234375,1.3896139860153198,1.4090276956558228,-0.12199055403470993
1758301346486839300,1.53583935546875,1.5356850624084473,1.6694450378417969,0.19461432099342346
1758301346496812300,1.545812255859375,1.9435300827026367,1.564677357673645,0.43617314100265503
1758301346506786300,1.555786376953125,2.4544904232025146,1.2930179834365845,0.5530590415000916
1758301346516759300,1.56575927734375,2.423460006713867,0.748720645904541,0.5529757142066956
1758301346526732500,1.575732666015625,1.8523701429367065,-0.33175310492515564,0.3569571375846863
1758301346536706600,1.58570654296875,1.2244383096694946,-0.470704048871994,0.5792804956436157
1758301346546679300,1.59567919921875,0.3548942506313324,-0.45107147097587585,0.643754243850708
1758301346556653300,1.6056533203125,-0.26065176725387573,-0.3243582844734192,0.789136528968811
1758301346566626300,1.615626220703125,-0.517164945602417,0.8154791593551636,1.0678595304489136
1758301346576600300,1.625600341796875,-0.301752507686615,1.2243566513061523,1.666245937347412
1758301346586573300,1.6355732421875,0.023336438462138176,1.6894454956054688,2.1027724742889404
1758301346596547300,1.64554736328125,0.279786080121994,1.8506535291671753,2.2690718173980713
1758301346606520300,1.655520263671875,0.38143423199653625,1.5200470685958862,2.052905321121216
1758301346616494300,1.665494384765625,0.9119806885719299,0.7097448110580444,1.7799699306488037
1758301346626467600,1.675467529296875,2.0736210346221924,0.4034331142902374,1.4687031507492065
1758301346636441300,1.68544140625,2.1039340496063232,-0.09188183397054672,0.9288428425788879
1758301346646414300,1.695414306640625,1.586356282234192,-0.5346192121505737,0.8541650176048279
1758301346656388400,1.705388427734375,0.6960368156433105,0.25485628843307495,1.6171729564666748
1758301346666361300,1.715361328125,0.5373895168304443,1.1674573421478271,2.26480770111084
1758301346676334300,1.725334228515625,0.7069279551506042,2.37060809135437,2.8147897720336914
1758301346686308400,1.735308349609375,0.9016391634941101,2.3665611743927,3.0697872638702393
1758301346696281300,1.74528125,0.9274771213531494,1.4354822635650635,2.9093475341796875
1758301346706255400,1.75525537109375,1.0125584602355957,0.1544744223356247,2.5242950916290283
1758301346716228400,1.765228271484375,1.232456922531128,-1.0650557279586792,2.064653158187866
1758301346726202400,1.775202392578125,1.6231274604797363,-1.7360756397247314,1.5904223918914795
1758301346736175400,1.78517529296875,1.7476422786712646,-1.990303874015808,1.4077039957046509
1758301346746149400,1.7951494140625,1.6327924728393555,-1.432647466659546,1.324011206626892
1758301346756122400,1.805122314453125,1.5214118957519531,-1.4066970348358154,1.406788945198059
1758301346766096400,1.815096435546875,1.3116891384124756,-1.378583550453186,1.614367127418518
1758301346776069400,1.8250693359375,0.7995164394378662,-1.517797589302063,1.7032349109649658
1758301346786043400,1.83504345703125,-0.2141720950603485,-1.387855052947998,1.460226058959961
1758301346796016400,1.845016357421875,-1.1515401601791382,-0.9718939661979675,1.2501494884490967
1758301346805990400,1.854990478515625,-1.2068935632705688,-0.01797143928706646,1.334492564201355
1758301346815963400,1.86496337890625,-0.9005461931228638,0.7274463176727295,1.6459336280822754
1758301346825937200,1.874937255859375,-0.8366766571998596,1.0506848096847534,1.722503423690796
1758301346835910400,1.884910400390625,-1.2419918775558472,1.1067088842391968,1.4779502153396606
1758301346845884400,1.894884521484375,-1.3264214992523193,0.42172548174858093,1.1660934686660767
1758301346855857400,1.904857421875,-1.010069727897644,0.1501711905002594,0.9349979758262634
1758301346865831400,1.91483154296875,-0.8025826811790466,0.6974928379058838,1.23121976852417
1758301346875804400,1.924804443359375,-0.8524208068847656,1.7808419466018677,1.6691536903381348
1758301346885778400,1.9347783203125,-1.031450629234314,2.6780340671539307,1.951634407043457
1758301346895751200,1.944751220703125,-0.9989827275276184,2.6627449989318848,1.9555468559265137
1758301346905724200,1.95472412109375,-0.9477131366729736,2.0319948196411133,1.473160982131958
1758301346915698200,1.9646982421875,-0.7238525748252869,0.7783079743385315,0.9331289529800415
1758301346925671400,1.97467138671875,-0.01042102836072445,-0.5613568425178528,0.8403421640396118
1758301346935645400,1.9846455078125,-0.049451250582933426,-0.7780883312225342,0.29488977789878845
1758301346945618400,1.994618408203125,0.23509906232357025,-1.0633867979049683,0.10543277859687805
1758301346955592400,2.004592529296875,0.3327164351940155,-0.7767131924629211,0.3418506383895874
1758301346965565400,2.0145654296875,0.38606229424476624,-0.8597123026847839,0.46811264753341675
1758301346975539500,2.02453955078125,-0.15274550020694733,-1.2744709253311157,0.21142704784870148
1758301346985512200,2.03451220703125,-0.5203629732131958,-1.4180452823638916,-0.11361594498157501
1758301346995486200,2.044486328125,-0.7972536683082581,-1.0755805969238281,-0.23655463755130768
1758301347005459200,2.054459228515625,-1.0289843082427979,-0.9303634762763977,-0.26165345311164856
1758301347015433200,2.06443310546875,-1.0582951307296753,-1.0354472398757935,-0.28264766931533813
1758301347025406500,2.074406494140625,-0.9564565420150757,-1.1689159870147705,-0.226724773645401
1758301347035380500,2.08438037109375,-0.6417601108551025,-1.3723647594451904,-0.4295777678489685
1758301347045353500,2.094353515625,-0.3574341833591461,-1.4219152927398682,-0.5051689147949219
1758301347055327500,2.104327392578125,-0.14386865496635437,-1.494185447692871,-0.4121990203857422
1758301347065300500,2.114300537109375,0.02251734957098961,-1.4448305368423462,-0.3367275893688202
1758301347075274500,2.1242744140625,-0.041941531002521515,-1.2299144268035889,-0.2077064961194992
1758301347085247200,2.134247314453125,-0.3332655727863312,-1.1132328510284424,-0.09994104504585266
1758301347095221200,2.14422119140625,-0.6673935055732727,-0.6401209235191345,0.11304792016744614
1758301347105194200,2.1541943359375,-0.872296154499054,0.044947266578674316,0.30110475420951843
1758301347115168300,2.164168212890625,-1.0120466947555542,0.6806938648223877,0.3484637439250946
1758301347125141500,2.1741416015625,-1.1159523725509644,1.0033423900604248,0.23776140809059143
1758301347135115300,2.184115234375,-1.0634900331497192,0.7092604637145996,0.015668950974941254
1758301347145088500,2.194088623046875,-0.9124922156333923,0.571652352809906,-0.1796720027923584
1758301347155062500,2.2040625,-0.706163227558136,0.44171541929244995,-0.38700205087661743
1758301347165035300,2.21403515625,-0.45982593297958374,0.41083940863609314,-0.5289458632469177
1758301347175009300,2.22400927734375,-0.17932982742786407,0.23260416090488434,-0.5105596780776978
1758301347184982300,2.233982177734375,-0.10753481090068817,0.1551043540239334,-0.44146206974983215
1758301347194956300,2.243956298828125,-0.054835110902786255,0.004306059330701828,-0.3631560802459717
1758301347204929300,2.25392919921875,-0.0925215408205986,-0.15195369720458984,-0.24600012600421906
1758301347214903300,2.2639033203125,-0.08698616176843643,-0.2901453971862793,-0.08236779272556305
1758301347224876300,2.273876220703125,-0.12462007999420166,-0.3839009404182434,0.01409499254077673
1758301347234850300,2.283850341796875,-0.1434326469898224,-0.4415415823459625,0.01863142102956772
1758301347244823600,2.293823486328125,-0.14754271507263184,-0.41929641366004944,-0.11777707934379578
1758301347254797600,2.303797607421875,-0.16561760008335114,-0.21230220794677734,-0.37729281187057495
1758301347264770300,2.313770263671875,-0.1599108874797821,0.023090539500117302,-0.6178218722343445
1758301347274744300,2.323744384765625,-0.24865859746932983,0.2396838366985321,-0.8268400430679321
1758301347284717300,2.33371728515625,-0.3129361569881439,0.3686848282814026,-1.0711132287979126
1758301347294691300,2.34369140625,-0.39084213972091675,0.393978476524353,-1.1704251766204834
1758301347304664300,2.353664306640625,-0.37094584107398987,0.5703879594802856,-1.0026251077651978
1758301347314638300,2.363638427734375,-0.33489754796028137,0.5989551544189453,-0.7621374130249023
1758301347324611300,2.373611328125,-0.3341333866119385,0.4562530219554901,-0.6023421287536621
1758301347334585300,2.38358544921875,-0.45262646675109863,0.3673926591873169,-0.6122011542320251
1758301347344559400,2.393559326171875,-0.5206275582313538,0.3032468557357788,-0.6863617897033691
1758301347354532400,2.403532470703125,-0.5615142583847046,0.38413822650909424,-0.6814095973968506
1758301347364507100,2.413507080078125,-0.69898521900177,0.6734075546264648,-0.6055254340171814
1758301347374480100,2.423480224609375,-0.885851263999939,0.9403268694877625,-0.5105688571929932
1758301347384454000,2.433453857421875,-1.0644067525863647,1.191076636314392,-0.47613921761512756
1758301347394427100,2.44342724609375,-1.2391899824142456,1.2831144332885742,-0.5067054033279419
1758301347404401200,2.453401123046875,-1.4769259691238403,1.4335386753082275,-0.6654979586601257
1758301347414374100,2.4633740234375,-1.7807518243789673,1.6165004968643188,-0.8775745630264282
1758301347424348200,2.47334814453125,-2.377354860305786,1.8531157970428467,-1.0506926774978638
1758301347434321200,2.483321044921875,-2.9464645385742188,1.97316575050354,-1.0108299255371094
1758301347444295200,2.493295166015625,-2.7436938285827637,2.0063693523406982,-0.7529433965682983
1758301347454268200,2.50326806640625,-1.6921504735946655,1.7297139167785645,-0.383166640996933
1758301347464242000,2.513241943359375,-1.1825621128082275,0.8922329545021057,-0.35925358533859253
1758301347474215000,2.52321484375,-1.4764554500579834,0.18372368812561035,-0.5540608763694763
1758301347484189000,2.53318896484375,-1.7278207540512085,0.2519388496875763,-0.4712040424346924
1758301347494162200,2.543162109375,-1.7572816610336304,0.23815195262432098,-0.4101358950138092
1758301347504136200,2.55313623046875,-1.8065050840377808,0.13703370094299316,-0.23305615782737732
1758301347514110200,2.563110107421875,-1.8649423122406006,0.09063797444105148,0.22594843804836273
1758301347524083200,2.573083251953125,-1.7064322233200073,-0.21636715531349182,0.39184796810150146
1758301347534057200,2.58305712890625,-1.4634767770767212,-1.060301661491394,0.1905476152896881
1758301347544030200,2.5930302734375,-1.3276455402374268,-2.327871799468994,-0.2877107858657837
1758301347554004200,2.603004150390625,-1.3242197036743164,-3.3432114124298096,-0.978232204914093
1758301347563977000,2.61297705078125,-1.107923150062561,-2.9864375591278076,-0.94826340675354
1758301347573951000,2.622950927734375,-0.4943181574344635,-1.582460880279541,0.24678011238574982
1758301347583924000,2.632924072265625,-0.1953950673341751,-1.1424543857574463,0.26483026146888733
1758301347593898000,2.64289794921875,-0.17875510454177856,-0.8638714551925659,-0.056619953364133835
1758301347603871200,2.652871337890625,-0.19147947430610657,-0.4373377561569214,-0.15907758474349976
1758301347613845000,2.662844970703125,-0.16072289645671844,0.02497662417590618,-0.16976298391819
1758301347623818200,2.672818359375,-0.3967127501964569,0.7115898132324219,-0.10746452957391739
1758301347633792300,2.682792236328125,-0.6593217849731445,1.1530729532241821,-0.15757082402706146
1758301347643766300,2.692766357421875,-0.7450593113899231,1.412904143333435,-0.30828413367271423
1758301347653739300,2.7027392578125,-0.8349766731262207,1.817055344581604,-0.4544520080089569
1758301347663713300,2.71271337890625,-0.9323440194129944,1.4032307863235474,-0.7361292839050293
1758301347673686000,2.72268603515625,-0.7619723081588745,0.7846696376800537,-1.1236152648925781
1758301347683660000,2.732659912109375,-0.6416271924972534,0.8308092951774597,-1.4118211269378662
1758301347693633000,2.742633056640625,-0.5923117995262146,1.1526720523834229,-1.4150649309158325
1758301347703607000,2.75260693359375,-0.5923923850059509,1.7379125356674194,-1.212365746498108
1758301347713580000,2.762580078125,-0.5449076890945435,2.359683036804199,-0.9915146231651306
1758301347723554000,2.772553955078125,-0.46371111273765564,2.470672369003296,-0.8847618699073792
1758301347733528000,2.782528076171875,-0.472573846578598,1.5780847072601318,-0.8015369772911072
1758301347743501300,2.792501220703125,-0.4649208188056946,1.153192400932312,-0.6008824706077576
1758301347753475000,2.80247509765625,-0.32205820083618164,0.823173463344574,-0.2784000039100647
1758301347763448000,2.812447998046875,-0.11648537218570709,0.4607096314430237,-0.11715012043714523
1758301347773422000,2.822422119140625,0.007662941236048937,0.09857060760259628,0.0253114216029644
1758301347783395000,2.83239501953125,0.0522281676530838,0.034631215035915375,0.12365659326314926
1758301347793369000,2.842369140625,0.04104155674576759,0.10708784312009811,0.12750886380672455
1758301347803342000,2.852342041015625,0.010652073659002781,0.31376758217811584,0.10631466656923294
1758301347813316000,2.862316162109375,-0.03505602478981018,0.6174859404563904,0.1990153044462204
1758301347823290000,2.8722900390625,-0.06499539315700531,0.8534664511680603,0.3473219573497772
1758301347833263000,2.88226318359375,-0.05742749571800232,0.8554539680480957,0.47141939401626587
1758301347843237000,2.892237060546875,-0.05792577192187309,0.7342569828033447,0.6518067717552185
1758301347853210000,2.902210205078125,-0.04351620748639107,0.5118036866188049,0.9434969425201416
1758301347863184100,2.91218408203125,0.05679430067539215,0.20408494770526886,1.2632430791854858
1758301347873157000,2.9221572265625,0.11263439059257507,-0.057540275156497955,1.4527190923690796
1758301347883131100,2.932131103515625,0.2691173255443573,-0.2202197164297104,1.4983067512512207
1758301347893104000,2.942104248046875,0.4798561930656433,-0.38871634006500244,1.5214563608169556
1758301347903078100,2.952078125,0.6890779733657837,-0.6210309267044067,1.5773606300354004
1758301347913052200,2.96205224609375,0.8820905685424805,-0.8554852604866028,1.5733860731124878
1758301347923025200,2.972025146484375,1.0605700016021729,-0.9627480506896973,1.4682941436767578
1758301347932999200,2.981999267578125,1.2589914798736572,-0.5902597308158875,1.276089072227478
1758301347942972200,2.99197216796875,1.5473089218139648,-0.11712080240249634,1.0973892211914062
1758301347952946200,3.0019462890625,1.9510729312896729,0.22969894111156464,0.9030919075012207
1758301347962919000,3.0119189453125,2.2052855491638184,0.6801655888557434,0.6772300004959106
1758301347972893000,3.021892822265625,2.1990110874176025,0.8662065863609314,0.5461243987083435
1758301347982867000,3.031866943359375,1.8434360027313232,0.7667230367660522,0.40386950969696045
1758301347992840000,3.04183984375,1.4827473163604736,0.6980787515640259,0.3375759720802307
1758301348002814000,3.05181396484375,1.1668561697006226,0.7314234375953674,0.45792534947395325
1758301348012787200,3.061787109375,0.6613224148750305,0.6874026656150818,0.7447829842567444
1758301348022761200,3.07176123046875,0.30071529746055603,0.7591124773025513,0.6314284801483154
1758301348032734200,3.081734130859375,0.14325693249702454,0.6986033320426941,0.48927316069602966
1758301348042708200,3.091708251953125,-0.03576785698533058,0.5780689120292664,0.5526877641677856
1758301348052682200,3.10168212890625,-0.3024307191371918,0.5158625245094299,0.7083636522293091
1758301348062655200,3.1116552734375,-0.5180858373641968,0.5872542262077332,0.8509281873703003
1758301348072629200,3.121629150390625,-0.8810254335403442,0.6953819990158081,0.9978526830673218
1758301348082602000,3.13160205078125,-1.1985019445419312,0.7438364028930664,1.0637701749801636
1758301348092576000,3.141575927734375,-1.3868318796157837,0.7764343023300171,0.946623682975769
1758301348102549000,3.151549072265625,-1.5301244258880615,0.7252963185310364,0.7221065759658813
1758301348112523000,3.16152294921875,-1.6359944343566895,0.6403102874755859,0.5680890679359436
1758301348122497000,3.1714970703125,-1.707156777381897,0.5278040170669556,0.44068291783332825
1758301348132470000,3.181469970703125,-1.8209725618362427,0.35963574051856995,0.31711092591285706
1758301348142444000,3.191444091796875,-1.8810445070266724,-0.012993423268198967,0.2324109822511673
1758301348152417300,3.201417236328125,-1.9460480213165283,-0.5333306193351746,-0.043684251606464386
1758301348162391300,3.211391357421875,-2.030374765396118,-0.9543243646621704,-0.16996558010578156
1758301348172365300,3.221365234375,-2.0109987258911133,-0.7793376445770264,-0.1864611953496933
1758301348182338000,3.231338134765625,-1.9397213459014893,-0.236407071352005,0.01755073480308056
1758301348192312000,3.24131201171875,-1.7545541524887085,0.19818353652954102,0.32147839665412903
1758301348202285000,3.25128515625,-1.4653204679489136,0.28566503524780273,0.29955193400382996
1758301348212259000,3.261259033203125,-1.2918144464492798,0.19437478482723236,0.11406434327363968
1758301348222232000,3.271232177734375,-1.14957857131958,-0.04802807420492172,-0.09824217855930328
1758301348232206000,3.2812060546875,-1.0565555095672607,-0.21703919768333435,-0.31598198413848877
1758301348242180000,3.29118017578125,-0.9746105074882507,-0.26473790407180786,-0.5066758990287781
1758301348252153000,3.301153076171875,-0.9118914604187012,-0.2556048631668091,-0.7028786540031433
1758301348262127000,3.311127197265625,-0.8851399421691895,-0.406205415725708,-0.8556002378463745
1758301348272100000,3.32110009765625,-0.9186201691627502,-0.6573047637939453,-0.9503456950187683
1758301348282074000,3.33107421875,-0.9780912399291992,-0.9896878600120544,-0.8716947436332703
1758301348292048100,3.341048095703125,-1.1014432907104492,-0.8206706047058105,-0.5712446570396423
1758301348302021000,3.351021240234375,-1.11024010181427,-0.281945139169693,-0.21139644086360931
1758301348311995100,3.3609951171875,-1.1485693454742432,0.028781823813915253,-0.044142745435237885
1758301348321968000,3.370968017578125,-0.9177976846694946,0.34228673577308655,-0.13107429444789886
1758301348331942100,3.380942138671875,-0.7647748589515686,0.2456408590078354,-0.22412541508674622
1758301348341915100,3.3909150390625,-1.004889965057373,-0.37607336044311523,-0.3297426998615265
1758301348351889200,3.40088916015625,-1.0230984687805176,-0.7313681244850159,-0.4633979797363281
1758301348361863200,3.41086328125,-0.45112869143486023,-0.758884847164154,-0.12234199047088623
1758301348371835400,3.42083544921875,-0.35005348920822144,-0.8305550217628479,-0.14966416358947754
1758301348381809400,3.430809326171875,-0.3545486629009247,-0.6588473320007324,-0.15292277932167053
1758301348391782400,3.440782470703125,-0.3137511610984802,-0.6379804015159607,-0.2156897634267807
1758301348401756400,3.45075634765625,-0.02978404425084591,-0.9172705411911011,-0.20221364498138428
1758301348411730400,3.46073046875,0.15842419862747192,-1.3136810064315796,-0.2639952600002289
1758301348421703700,3.47070361328125,0.43364039063453674,-1.6846493482589722,-0.33695855736732483
1758301348431677700,3.480677734375,0.6880486607551575,-1.7864660024642944,-0.502038836479187
1758301348441650700,3.490650634765625,0.9782440662384033,-1.622516393661499,-0.6885359287261963
1758301348451624700,3.500624755859375,0.9341208338737488,-1.2808724641799927,-0.848090410232544
1758301348461598700,3.5105986328125,0.6065382957458496,-0.9104633331298828,-0.8717262744903564
1758301348471571500,3.520571533203125,0.547627866268158,-0.911424994468689,-1.0199376344680786
1758301348481545500,3.53054541015625,0.39064937829971313,-0.9375312924385071,-0.9128185510635376
1758301348491518500,3.5405185546875,0.009430928155779839,-0.9272456169128418,-0.31752586364746094
1758301348501492500,3.550492431640625,-0.49340131878852844,-0.8206380009651184,0.4715903699398041
1758301348511465500,3.560465576171875,-0.853966474533081,-0.39696818590164185,1.012272834777832
1758301348521439500,3.570439453125,-1.3440247774124146,-0.3917478919029236,1.1215037107467651
1758301348531413500,3.58041357421875,-1.6323273181915283,-0.6349078416824341,0.7208174467086792
1758301348541386500,3.590386474609375,-1.5023374557495117,0.20588208734989166,0.33874568343162537
1758301348551360500,3.600360595703125,-1.3030850887298584,0.8140809535980225,0.20377856492996216
1758301348561334500,3.61033447265625,-1.066454529762268,0.8752999305725098,0.34031274914741516
1758301348571307500,3.6203076171875,-0.6792724132537842,0.629623293876648,0.5095481276512146
1758301348581281500,3.630281494140625,-0.3209324777126312,0.4464912414550781,0.5359776616096497
1758301348591254500,3.640254638671875,0.03662031143903732,0.6563674807548523,0.050209373235702515
1758301348601228500,3.650228515625,0.18491299450397491,0.832748293876648,-0.643842875957489
1758301348611202600,3.66020263671875,0.023251930251717567,0.8499456644058228,-0.7862812280654907
1758301348621175600,3.670175537109375,0.10342259705066681,0.9556710720062256,-0.6000778675079346
1758301348631149600,3.680149658203125,0.330382764339447,0.8562576770782471,-0.43441781401634216
1758301348641122600,3.69012255859375,0.2681165337562561,0.6974921822547913,-0.2298513501882553
1758301348651096600,3.7000966796875,0.03590674325823784,0.5151098966598511,-0.02478688396513462
1758301348661069600,3.710069580078125,-0.09626777470111847,0.496364563703537,0.17989972233772278
1758301348671043600,3.720043701171875,-0.11475729942321777,0.34506186842918396,0.4782440662384033
1758301348681017300,3.730017333984375,-0.13754193484783173,0.10525712370872498,0.46327370405197144
1758301348690990300,3.739990234375,-0.21819497644901276,-0.12895219027996063,0.23015232384204865
1758301348700964400,3.74996435546875,-0.2351873368024826,0.014087531715631485,-0.029217852279543877
1758301348710938400,3.7599384765625,-0.0973285436630249,0.35736367106437683,-0.17298966646194458
1758301348720911600,3.76991162109375,0.14335954189300537,0.4823613166809082,-0.12789198756217957
1758301348730885600,3.7798857421875,0.3895677328109741,0.2620915472507477,0.08987762778997421
1758301348740858600,3.789858642578125,0.20051857829093933,-0.05207815766334534,0.4079534113407135
1758301348750832600,3.79983251953125,0.018109630793333054,0.03725172206759453,0.1268325299024582
1758301348760806700,3.809806640625,0.02238808013498783,0.3561825156211853,-0.16196209192276
1758301348770779600,3.819779541015625,0.06544793397188187,0.4559498429298401,-0.2646956741809845
1758301348780753700,3.829753662109375,0.03510592132806778,0.41014009714126587,-0.27479952573776245
1758301348790726400,3.839726318359375,0.025757696479558945,0.872181236743927,-0.32634714245796204
1758301348800700400,3.849700439453125,0.05767306312918663,1.233025074005127,-0.4641619026660919
1758301348810674400,3.85967431640625,-0.018864057958126068,1.063136339187622,-0.2949102818965912
1758301348820647400,3.8696474609375,-0.22121207416057587,0.8477789163589478,-0.16562190651893616
1758301348830621400,3.879621337890625,-0.3993240296840668,1.0997525453567505,-0.11823228001594543
1758301348840594400,3.889594482421875,-0.40000784397125244,1.1192258596420288,-0.24033094942569733
1758301348850568400,3.899568359375,-0.2712900936603546,0.8729007840156555,-0.416367769241333
1758301348860542500,3.90954248046875,-0.21210941672325134,0.7606990337371826,-0.5842971801757812
1758301348870515700,3.919515625,-0.32187825441360474,0.6393036246299744,-0.5710599422454834
1758301348880489500,3.929489501953125,-0.521340548992157,0.38268640637397766,-0.43852442502975464
1758301348890462500,3.93946240234375,-0.6529771685600281,0.5488378405570984,-0.2702041268348694
1758301348900436500,3.9494365234375,-0.6784491539001465,0.7531775832176208,-0.09001922607421875
1758301348910410500,3.959410400390625,-0.626781702041626,0.8069664835929871,-0.01098725851625204
1758301348920383500,3.969383544921875,-0.5549536347389221,0.6609119176864624,0.029848312959074974
1758301348930357500,3.979357421875,-0.4797598123550415,0.49857622385025024,-0.007015162613242865
1758301348940331500,3.98933154296875,-0.404292494058609,0.35468602180480957,-0.11819083988666534
1758301348950304500,3.999304443359375,-0.3610134720802307,0.2362949252128601,-0.2286270707845688
1758301348960278500,4.009278564453125,-0.3304089605808258,0.15489041805267334,-0.30635809898376465
1758301348970251500,4.01925146484375,-0.3440488874912262,0.09785668551921844,-0.34850528836250305
1758301348980225500,4.0292255859375,-0.40626025199890137,0.10563866049051285,-0.3127433657646179
1758301348990199600,4.039199462890625,-0.5282682180404663,0.05679574981331825,-0.2632461190223694
1758301349000172500,4.049172607421875,-0.6870374083518982,0.016550378873944283,-0.2047252207994461
1758301349010146600,4.059146484375,-0.8431470990180969,-0.007689979858696461,-0.17022424936294556
1758301349020119600,4.06911962890625,-0.9270662665367126,0.005014379508793354,-0.1730061173439026
1758301349030093300,4.07909326171875,-0.974714994430542,0.05020289495587349,-0.16512662172317505
1758301349040067300,4.0890673828125,-0.9908406138420105,0.09049008041620255,-0.15171685814857483
1758301349050040600,4.09904052734375,-0.9992237091064453,0.1048799380660057,-0.11244162172079086
1758301349060014600,4.1090146484375,-0.9802407026290894,0.07042461633682251,-0.05530879274010658
1758301349069988600,4.118988525390625,-0.9092525243759155,0.09652679413557053,-0.013370398432016373
1758301349079961600,4.128961669921875,-0.8004590272903442,0.18856531381607056,0.02891801856458187
1758301349089935600,4.138935546875,-0.6465237736701965,0.31471553444862366,0.0772879421710968
1758301349099908600,4.14890869140625,-0.413760244846344,0.4239431619644165,0.06460705399513245
1758301349109882600,4.158882568359375,-0.19306090474128723,0.5531405806541443,0.017648858949542046
1758301349119856600,4.168856689453125,-0.012499921023845673,0.6143746972084045,-0.014859623275697231
1758301349129829400,4.178829345703125,0.12947826087474823,0.6296582818031311,-0.06040659919381142
1758301349139803400,4.188803466796875,0.03643220290541649,0.8281753063201904,-0.3018883168697357
1758301349149777400,4.19877734375,0.2921598553657532,0.39829322695732117,-0.4065715968608856
1758301349159750400,4.20875048828125,0.4293738305568695,0.6140583157539368,-0.15000154078006744
1758301349169724400,4.218724365234375,0.5780022144317627,0.7009596824645996,0.017260156571865082
1758301349179698400,4.228698486328125,0.545291006565094,0.904386043548584,-0.027636753395199776
1758301349189671400,4.23867138671875,0.34412622451782227,0.9178637266159058,0.013140503317117691
1758301349199645400,4.2486455078125,0.20314165949821472,0.8085309267044067,0.1270536184310913
1758301349209619500,4.258619384765625,0.152068093419075,0.7526820302009583,0.08133087307214737
1758301349219592400,4.268592529296875,0.1064082458615303,0.8347224593162537,-0.09296919405460358
1758301349229566500,4.27856640625,0.06660357117652893,0.8200500011444092,-0.24611958861351013
1758301349239539700,4.288539794921875,0.12054106593132019,0.8516680598258972,-0.28862008452415466
1758301349249513700,4.298513671875,0.27695971727371216,0.7350761890411377,-0.23050138354301453
1758301349259487700,4.30848779296875,0.3377951681613922,0.5473417043685913,-0.1410127729177475
1758301349269460500,4.31846044921875,0.43838781118392944,0.3544614613056183,-0.05647605285048485
1758301349279434500,4.3284345703125,0.3996604084968567,0.29415038228034973,0.0771113708615303
1758301349289408500,4.338408447265625,0.27918511629104614,0.3882047235965729,0.17469358444213867
1758301349299381500,4.348381591796875,0.1406581997871399,0.500841498374939,0.23892463743686676
1758301349309355500,4.35835546875,0.03089122660458088,0.5781509280204773,0.354320228099823
1758301349319329500,4.36832958984375,-0.060797110199928284,0.699191689491272,0.4340485632419586
1758301349329302500,4.378302490234375,-0.14528349041938782,0.8381770253181458,0.355376660823822
1758301349339276500,4.388276611328125,-0.1480388045310974,0.8932983875274658,0.17005027830600739
1758301349349250600,4.39825048828125,-0.13926449418067932,0.9571183323860168,-0.041939739137887955
1758301349359223600,4.4082236328125,-0.06816493719816208,0.9628878235816956,-0.16406264901161194
1758301349369197000,4.418197021484375,0.06493958830833435,0.8727608323097229,-0.1437070369720459
1758301349379171000,4.428171142578125,0.20765283703804016,0.7747728824615479,0.00026035966584458947
1758301349389144000,4.43814404296875,0.33931446075439453,0.6448718309402466,0.20016148686408997
1758301349399118000,4.4481181640625,0.41931086778640747,0.5459986329078674,0.4078066051006317
1758301349409092000,4.458092041015625,0.48845717310905457,0.5210291147232056,0.5711060762405396
1758301349419065300,4.4680654296875,0.5403631925582886,0.595151424407959,0.6561083197593689
1758301349429039400,4.478039306640625,0.5744564533233643,0.6938361525535583,0.6538220047950745
1758301349439013000,4.48801318359375,0.5901446342468262,0.8553507924079895,0.61358243227005
1758301349448986400,4.497986328125,0.5488906502723694,0.9737509489059448,0.6017987728118896
1758301349458960400,4.50796044921875,0.4554632008075714,1.085316777229309,0.5958561897277832
1758301349468934400,4.517934326171875,0.3043256402015686,1.1301630735397339,0.5993574857711792
1758301349478907100,4.5279072265625,0.16843417286872864,1.1796538829803467,0.5845818519592285
1758301349488881200,4.537881103515625,0.0770757645368576,1.2262003421783447,0.6090989112854004
1758301349498855200,4.547855224609375,-0.017657935619354248,1.265276312828064,0.6847766041755676
1758301349508829200,4.5578291015625,-0.10193419456481934,1.3052879571914673,0.7401277422904968
1758301349518802200,4.56780224609375,-0.15965208411216736,1.3191550970077515,0.7777628302574158
1758301349528776200,4.577776123046875,-0.2047436684370041,1.2861268520355225,0.8141741156578064
1758301349538750200,4.587750244140625,-0.2357073724269867,1.254332423210144,0.8420283198356628
1758301349548723200,4.59772314453125,-0.2527869939804077,1.2131178379058838,0.8491514921188354
1758301349558697200,4.607697265625,-0.2736017107963562,1.1896251440048218,0.8591816425323486
1758301349568671200,4.617671142578125,-0.3268662691116333,1.193435788154602,0.8907883167266846
1758301349578644200,4.627644287109375,-0.3968489170074463,1.1885334253311157,0.9393768906593323
1758301349588618200,4.6376181640625,-0.4408976137638092,1.1447155475616455,0.924150288105011
1758301349598592300,4.64759228515625,-0.48723912239074707,1.1016839742660522,0.8632079362869263
1758301349608565200,4.657565185546875,-0.5365187525749207,1.0816330909729004,0.782014012336731
1758301349618539300,4.667539306640625,-0.5900864601135254,1.0362249612808228,0.6956799030303955
1758301349628513300,4.67751318359375,-0.6625556349754333,1.0311341285705566,0.6015139818191528
1758301349638487300,4.6874873046875,-0.7141959071159363,1.037288784980774,0.5055863857269287
1758301349648460000,4.6974599609375,-0.7581106424331665,1.0140814781188965,0.4483009874820709
1758301349658434000,4.70743408203125,-0.7980026602745056,0.9998958706855774,0.38340288400650024
1758301349668408000,4.717407958984375,-0.8157063126564026,0.9823547005653381,0.2916814982891083
1758301349678381300,4.72738134765625,-0.8102502822875977,0.9435210227966309,0.20809565484523773
1758301349688355300,4.737355224609375,-0.756044328212738,0.8670920133590698,0.08720438927412033
1758301349698329000,4.7473291015625,-0.6524105072021484,0.8121075630187988,-0.050846539437770844
1758301349708302300,4.75730224609375,-0.5337510108947754,0.7948705554008484,-0.17747905850410461
1758301349718276400,4.7672763671875,-0.4129561185836792,0.7899188995361328,-0.2882342040538788
1758301349728250400,4.77725048828125,-0.309305340051651,0.7868583798408508,-0.37397652864456177
1758301349738224400,4.787224365234375,-0.22753670811653137,0.7744805812835693,-0.42150548100471497
1758301349748197400,4.797197265625,-0.14940142631530762,0.7908419370651245,-0.4822514057159424
1758301349758171400,4.80717138671875,-0.08376359194517136,0.827286422252655,-0.4762572944164276
1758301349768145400,4.8171455078125,-0.028020700439810753,0.8401204347610474,-0.47166547179222107
1758301349778118100,4.8271181640625,0.0014525356236845255,0.8322736024856567,-0.43488821387290955
1758301349788092200,4.837092041015625,-0.012751700356602669,0.8010834455490112,-0.3616427481174469
1758301349798066200,4.847066162109375,-0.04339330643415451,0.754626989364624,-0.26962223649024963
1758301349808040200,4.857040283203125,-0.06829492747783661,0.7259953618049622,-0.17910271883010864
1758301349818013200,4.86701318359375,-0.07453171163797379,0.7162556052207947,-0.09268108010292053
1758301349827987200,4.8769873046875,-0.07274898886680603,0.7441714406013489,-0.06463319808244705
1758301349837961200,4.886961181640625,-0.08269573748111725,0.7967208623886108,-0.053682032972574234
1758301349847935200,4.896935302734375,-0.08233567327260971,0.8547911047935486,-0.06463055312633514
1758301349857908200,4.906908203125,-0.0847846120595932,0.9337424039840698,-0.07896865159273148
1758301349867882200,4.91688232421875,-0.1116843968629837,1.0120034217834473,-0.09107804298400879
1758301349877856300,4.926856201171875,-0.11351259052753448,1.0313326120376587,-0.09946466237306595
1758301349887829200,4.936829345703125,-0.07878416776657104,0.98320072889328,-0.14409871399402618
1758301349897803300,4.94680322265625,-0.0021759371738880873,0.8771331310272217,-0.18215373158454895
1758301349907777300,4.95677734375,0.14044272899627686,0.787951648235321,-0.18142801523208618
1758301349917751300,4.966751220703125,0.3475300669670105,0.8147279024124146,-0.1915474385023117
1758301349927724000,4.97672412109375,0.5236440896987915,0.9301727414131165,-0.23316173255443573
1758301349937698000,4.986697998046875,0.667889416217804,0.980491578578949,-0.2995210587978363
1758301349947672000,4.996672119140625,0.8467438220977783,0.9256810545921326,-0.1884046345949173
1758301349957645000,5.00664501953125,1.0295125246047974,0.8455487489700317,0.026727160438895226
1758301349967619000,5.016619140625,1.086472988128662,0.8355251550674438,0.2776890695095062
1758301349977593000,5.026593017578125,0.9251693487167358,0.8482332825660706,0.23124298453330994
1758301349987567000,5.036567138671875,0.9804472327232361,1.1665105819702148,0.4332996606826782
1758301349997540400,5.046540283203125,1.0377583503723145,1.277016043663025,0.46981528401374817
1758301350007514000,5.05651416015625,0.9413548707962036,1.250120759010315,0.20823615789413452
1758301350017488100,5.066488037109375,0.7907819151878357,1.167054295539856,-0.1226341724395752
1758301350027462100,5.076462158203125,0.6021654009819031,1.1080721616744995,-0.34948116540908813
1758301350037435400,5.086435302734375,0.31280842423439026,1.041731834411621,-0.4290558695793152
1758301350047409400,5.096409423828125,-0.14253540337085724,0.8893111348152161,-0.31319746375083923
1758301350057383400,5.106383544921875,-0.18023152649402618,0.8476217985153198,-0.28079625964164734
1758301350067356200,5.116356201171875,-0.03605997562408447,0.8067713379859924,-0.21840104460716248
1758301350077330200,5.126330078125,0.08600692451000214,0.8157659769058228,-0.022544823586940765
1758301350087304200,5.13630419921875,0.04100003093481064,0.8156520128250122,0.2610751688480377
1758301350097278200,5.1462783203125,-0.03976036608219147,0.8234969973564148,0.42519667744636536
1758301350107251200,5.156251220703125,-0.04816077649593353,0.799575686454773,0.24947281181812286
1758301350117225200,5.16622509765625,-0.028393739834427834,0.7638338804244995,-0.08459550142288208
1758301350127199200,5.17619921875,-0.0028529588598757982,0.795986533164978,-0.23597489297389984
1758301350137173200,5.18617333984375,-0.012952168472111225,0.893401563167572,-0.22368799149990082
1758301350147146200,5.196146240234375,-0.056847989559173584,1.0158923864364624,-0.18646951019763947
1758301350157120300,5.206120361328125,-0.10529747605323792,1.1138668060302734,-0.20759810507297516
1758301350167094300,5.21609423828125,-0.12021490186452866,1.1830639839172363,-0.2615750730037689
1758301350177068300,5.226068359375,-0.09864942729473114,1.2564382553100586,-0.29515379667282104
1758301350187041300,5.236041259765625,-0.08875391632318497,1.3509701490402222,-0.29168689250946045
1758301350197015300,5.246015380859375,-0.07910124957561493,1.4036157131195068,-0.2538355886936188
1758301350206989300,5.2559892578125,-0.06977033615112305,1.4262224435806274,-0.20884281396865845
1758301350216962300,5.26596240234375,-0.07699218392372131,1.4428093433380127,-0.16132380068302155
1758301350226936300,5.275936279296875,-0.09897817671298981,1.4282631874084473,-0.10657426714897156
1758301350236910300,5.285910400390625,-0.12434055656194687,1.416504979133606,-0.04330756887793541
1758301350246884000,5.295884033203125,-0.13248583674430847,1.35844087600708,0.007064259611070156
1758301350256857000,5.305857177734375,-0.14018754661083221,1.2927566766738892,0.04985915124416351
1758301350266831000,5.3158310546875,-0.1413327008485794,1.2294515371322632,0.08774661272764206
1758301350276805000,5.32580517578125,-0.13666366040706635,1.1425058841705322,0.1220271959900856
1758301350286779100,5.335779052734375,-0.12923318147659302,1.0808461904525757,0.1599878966808319
1758301350296752000,5.345752197265625,-0.13868369162082672,1.0216587781906128,0.19267819821834564
1758301350306726100,5.35572607421875,-0.14644040167331696,0.964344322681427,0.21697022020816803
1758301350316700200,5.3657001953125,-0.13766621053218842,0.9068178534507751,0.23986101150512695
1758301350326674200,5.375674072265625,-0.12390726059675217,0.8548169732093811,0.2860322594642639
1758301350336647200,5.385647216796875,-0.10257315635681152,0.7969928979873657,0.3529486060142517
1758301350346621200,5.39562109375,-0.08387190848588943,0.727933406829834,0.4343729019165039
1758301350356595200,5.40559521484375,-0.05351942032575607,0.6490575075149536,0.5117287039756775
1758301350366568400,5.415568359375,-0.035466115921735764,0.5809075236320496,0.5720477104187012
1758301350376542500,5.42554248046875,-0.04972026124596596,0.6019372940063477,0.593842625617981
1758301350386516500,5.4355166015625,-0.08858909457921982,0.7091798782348633,0.5567857623100281
1758301350396490500,5.445490478515625,-0.11769680678844452,0.881691038608551,0.4595493972301483
1758301350406463700,5.455463623046875,-0.12316667288541794,0.9942783117294312,0.35014858841896057
1758301350416437500,5.4654375,-0.11172959953546524,1.0837223529815674,0.2656528353691101
1758301350426411500,5.47541162109375,-0.1428273320198059,1.2329198122024536,0.1665872484445572
1758301350436385500,5.485385498046875,-0.16618411242961884,1.343910813331604,-0.008852687664330006
1758301350446358800,5.49535888671875,-0.16022981703281403,1.4053746461868286,-0.169664204120636
1758301350456332800,5.505332763671875,-0.12132181227207184,1.4547964334487915,-0.18936869502067566
1758301350466306600,5.515306640625,-0.04532131925225258,1.2534809112548828,-0.08724632859230042
1758301350476280600,5.525280517578125,0.00184623000677675,1.0911165475845337,0.0019892402924597263
1758301350486253800,5.53525390625,-0.0030454641673713923,1.0665347576141357,0.06386885046958923
1758301350496227800,5.545227783203125,-0.019254224374890327,1.0773696899414062,0.1053808405995369
1758301350506201900,5.555201904296875,-0.03162434324622154,1.0768879652023315,0.10681282728910446
1758301350516176000,5.56517578125,-0.020350381731987,1.04815673828125,0.10231181979179382
1758301350526148600,5.575148681640625,0.04048633575439453,1.0063978433609009,0.0998167023062706
1758301350536122600,5.58512255859375,0.1390438824892044,0.9881013035774231,0.10111473500728607
1758301350546096600,5.5950966796875,0.28251102566719055,0.9404871463775635,0.08223158866167068
1758301350556070700,5.605070556640625,0.3708553910255432,0.8844894766807556,0.04813732951879501
1758301350566043600,5.615043701171875,0.3667900860309601,0.8591347932815552,0.02373185195028782
1758301350576017700,5.625017578125,0.29454541206359863,0.9038348197937012,0.0028528920374810696
1758301350585991700,5.63499169921875,0.16268962621688843,0.9462944269180298,0.019223077222704887
1758301350595965700,5.644965576171875,-0.0587775781750679,0.9549675583839417,0.14701475203037262
1758301350605938700,5.654938720703125,-0.31560218334198,0.9878195524215698,0.2939291000366211
1758301350615912700,5.66491259765625,-0.47258248925209045,1.0896774530410767,0.29344823956489563
1758301350625886700,5.67488671875,-0.4401470422744751,1.1804519891738892,0.0977463647723198
1758301350635860700,5.68486083984375,-0.2696281969547272,1.1884709596633911,-0.09394444525241852
1758301350645833700,5.694833740234375,-0.14228275418281555,1.240387201309204,-0.12438943982124329
1758301350655807700,5.704807861328125,-0.0774238184094429,1.3173011541366577,-0.051699474453926086
1758301350665781800,5.71478173828125,-0.05503009632229805,1.3916842937469482,0.034772567451000214
1758301350675755800,5.724755859375,-0.056332122534513474,1.4404433965682983,0.08175570517778397
1758301350685728500,5.734728515625,-0.07062104344367981,1.4615700244903564,0.10578887164592743
1758301350695702500,5.74470263671875,-0.09302062541246414,1.4780999422073364,0.14685268700122833
1758301350705676500,5.754676513671875,-0.11830760538578033,1.494570016860962,0.2443171888589859
1758301350715650600,5.764650634765625,-0.1486918032169342,1.4802029132843018,0.40874290466308594
1758301350725623600,5.77462353515625,-0.1869901865720749,1.4779576063156128,0.6156947612762451
1758301350735597600,5.78459765625,-0.21902526915073395,1.541879415512085,0.7937076091766357
1758301350745571600,5.794571533203125,-0.23686924576759338,1.6416728496551514,0.8771082758903503
1758301350755545600,5.804545654296875,-0.23657193779945374,1.7197626829147339,0.8425701260566711
1758301350765518600,5.8145185546875,-0.2069954127073288,1.7329626083374023,0.735279381275177
1758301350775492600,5.82449267578125,-0.14974798262119293,1.6760170459747314,0.6068617105484009
1758301350785466600,5.834466552734375,-0.08777356147766113,1.557779312133789,0.5059625506401062
1758301350795440600,5.844440673828125,-0.08301113545894623,1.3021528720855713,0.42298901081085205
1758301350805413600,5.85441357421875,-0.024136360734701157,1.3614587783813477,0.3641081154346466
1758301350815387600,5.8643876953125,0.07587484270334244,1.4114583730697632,0.31346383690834045
1758301350825361700,5.874361572265625,0.16163715720176697,1.4029031991958618,0.26818957924842834
1758301350835335700,5.884335693359375,0.21297799050807953,1.3651703596115112,0.2512235939502716
1758301350845308400,5.894308349609375,0.2415212243795395,1.327593445777893,0.3044002652168274
1758301350855282400,5.904282470703125,0.246881365776062,1.2903635501861572,0.41861045360565186
1758301350865256400,5.91425634765625,0.2294491082429886,1.2650656700134277,0.5250875949859619
1758301350875230500,5.92423046875,0.19479584693908691,1.2547575235366821,0.5745514035224915
1758301350885203700,5.93420361328125,0.14327672123908997,1.2504671812057495,0.5628340840339661
1758301350895177700,5.944177734375,0.07659043371677399,1.250069260597229,0.5280942916870117
1758301350905151500,5.9541513671875,0.006528256461024284,1.2494479417800903,0.4870978593826294
1758301350915124700,5.964124755859375,-0.06017003953456879,1.2427451610565186,0.45721882581710815
1758301350925098800,5.9740986328125,-0.11935240030288696,1.23186457157135,0.4357185959815979
1758301350935072800,5.98407275390625,-0.16169288754463196,1.2095688581466675,0.4285382330417633
1758301350945046800,5.994046875,-0.1912475824356079,1.1691370010375977,0.425119012594223
1758301350955020500,6.0040205078125,-0.20150581002235413,1.1097031831741333,0.42368969321250916
1758301350964993800,6.013993896484375,-0.19772972166538239,1.0228679180145264,0.4284447729587555
1758301350974967800,6.0239677734375,-0.1891607791185379,0.7676203846931458,0.4349597096443176
1758301350984941800,6.03394189453125,-0.18657805025577545,0.7565663456916809,0.4192747473716736
1758301350994915800,6.043915771484375,-0.17243239283561707,0.8443630933761597,0.41886577010154724
1758301351004888600,6.053888671875,-0.1578473150730133,0.797778844833374,0.41816800832748413
1758301351014862600,6.063862548828125,-0.14756077527999878,0.730610191822052,0.396049827337265
1758301351024836600,6.073836669921875,-0.14752881228923798,0.7177503108978271,0.34732410311698914
1758301351034810600,6.083810546875,-0.1612701714038849,0.7467873692512512,0.2786288559436798
1758301351044783600,6.09378369140625,-0.19063737988471985,0.750099241733551,0.2031945288181305
1758301351054757600,6.103757568359375,-0.21897581219673157,0.7542670965194702,0.12345940619707108
1758301351064731600,6.113731689453125,-0.247916117310524,0.7639577984809875,0.0502573698759079
1758301351074704600,6.12370458984375,-0.2903650104999542,0.779276430606842,-0.046423397958278656
1758301351084678700,6.1336787109375,-0.3254942297935486,0.7905296087265015,-0.15237167477607727
1758301351094652700,6.143652587890625,-0.3987845480442047,0.7860759496688843,-0.24091963469982147
1758301351104626700,6.153626708984375,-0.3585604429244995,0.7735747694969177,-0.2838345766067505
1758301351114600700,6.1636005859375,-0.27598610520362854,0.7345565557479858,-0.2736966609954834
1758301351124573700,6.17357373046875,-0.18878301978111267,0.671720564365387,-0.21604828536510468
1758301351134547700,6.183547607421875,-0.10935349762439728,0.62192702293396,-0.1127210184931755
1758301351144521700,6.193521728515625,-0.02051151543855667,0.5740016102790833,0.010139389894902706
1758301351154495700,6.203495849609375,0.08209394663572311,0.5240182280540466,0.10448780655860901
1758301351164468500,6.213468505859375,0.13544505834579468,0.4926901161670685,0.12230809032917023
1758301351174442500,6.2234423828125,0.13025282323360443,0.5462366342544556,0.05977597460150719
1758301351184416500,6.23341650390625,0.11451113224029541,0.5603402256965637,-0.020041892305016518
1758301351194389500,6.243389404296875,0.10526246577501297,0.5570834875106812,-0.09161100536584854
1758301351204363500,6.253363525390625,0.08977751433849335,0.5192053914070129,-0.157377228140831
1758301351214337500,6.263337646484375,0.12459585070610046,0.5799299478530884,-0.1905578374862671
1758301351224311600,6.2733115234375,0.16418294608592987,0.584067165851593,-0.24526315927505493
1758301351234285600,6.28328564453125,0.2428564578294754,0.5397569537162781,-0.253367155790329
1758301351244258600,6.293258544921875,0.3250972628593445,0.49284353852272034,-0.1106097474694252
1758301351254232600,6.303232666015625,0.3877986967563629,0.5095166563987732,0.10081492364406586
1758301351264206600,6.31320654296875,0.4053707420825958,0.5819801688194275,0.2049786001443863
1758301351274180600,6.3231806640625,0.392326682806015,0.7029827833175659,0.14024409651756287
1758301351284153600,6.333153564453125,0.39898964762687683,0.8234761357307434,-0.024760570377111435
1758301351294127600,6.343127685546875,0.4190198481082916,0.9177505373954773,-0.1652688980102539
1758301351304101600,6.3531015625,0.4020642936229706,0.9555378556251526,-0.19373010098934174
1758301351314075600,6.36307568359375,0.34053075313568115,0.9707017540931702,-0.1586037576198578
1758301351324048600,6.373048583984375,0.2490474432706833,0.9657221436500549,-0.1475955843925476
1758301351334022700,6.383022705078125,0.13939793407917023,0.9496573209762573,-0.20390309393405914
1758301351343996400,6.392996337890625,0.042280443012714386,0.9260374307632446,-0.27853792905807495
1758301351353970400,6.402970458984375,-0.015979239717125893,0.9041388034820557,-0.3030591309070587
1758301351363943700,6.412943603515625,-0.03893489018082619,0.8399600386619568,-0.24146394431591034
1758301351373917200,6.422917236328125,-0.03162381052970886,0.7239961624145508,-0.12476048618555069
1758301351383891200,6.43289111328125,0.005731018725782633,0.6964539885520935,-0.06113037094473839
1758301351393865200,6.442865234375,0.04564527049660683,0.7371887564659119,-0.10704899579286575
1758301351403838200,6.452838134765625,0.0690949335694313,0.7668499946594238,-0.18536964058876038
1758301351413812200,6.462812255859375,0.06468118727207184,0.8089167475700378,-0.21845991909503937
1758301351423786200,6.4727861328125,0.036970462650060654,0.8574951887130737,-0.21504229307174683
1758301351433760300,6.48276025390625,-0.009240827523171902,0.9127439856529236,-0.2190016657114029
1758301351443733200,6.492733154296875,-0.05892316251993179,0.9822724461555481,-0.23571619391441345
1758301351453707300,6.502707275390625,-0.0940118208527565,1.0668449401855469,-0.26262515783309937
1758301351463681000,6.512680908203125,-0.11610540747642517,1.157983660697937,-0.2828076481819153
1758301351473654000,6.522654052734375,-0.13951891660690308,1.2404847145080566,-0.2874640226364136
1758301351483628000,6.5326279296875,-0.1715538203716278,1.2680968046188354,-0.2688695788383484
1758301351493602000,6.54260205078125,-0.20405511558055878,1.278075098991394,-0.22320523858070374
1758301351503576000,6.552576171875,-0.23494857549667358,1.2561895847320557,-0.15356731414794922
1758301351513550000,6.562550048828125,-0.26577842235565186,1.2455047369003296,-0.05882585048675537
1758301351523523000,6.572523193359375,-0.26694780588150024,1.2334672212600708,0.024231484159827232
1758301351533497000,6.5824970703125,-0.2646917402744293,1.202493667602539,0.08794660121202469
1758301351543471000,6.59247119140625,-0.2635561525821686,1.115172266960144,0.16023065149784088
1758301351553445000,6.602445068359375,-0.2573339343070984,1.0227985382080078,0.2259989082813263
1758301351563418000,6.612418212890625,-0.2223927229642868,0.9606900811195374,0.2542009651660919
1758301351573392100,6.62239208984375,-0.18888741731643677,0.9221999049186707,0.23897002637386322
1758301351583366100,6.6323662109375,-0.1573244333267212,0.8849907517433167,0.20154675841331482
1758301351593340200,6.642340087890625,-0.12835180759429932,0.8321398496627808,0.16396164894104004
1758301351603313200,6.652313232421875,-0.10634557902812958,0.7963938117027283,0.13044071197509766
1758301351613287200,6.662287109375,-0.08502174913883209,0.7616347670555115,0.0949716567993164
1758301351623261200,6.67226123046875,-0.05936858057975769,0.731714129447937,0.08180898427963257
1758301351633235200,6.682235107421875,-0.0414002388715744,0.7090857625007629,0.09634656459093094
1758301351643208000,6.6922080078125,-0.022176209837198257,0.6984320282936096,0.12073073536157608
1758301351653182000,6.702181884765625,-0.004070443566888571,0.6795976161956787,0.151043102145195
1758301351663156000,6.712156005859375,0.025727933272719383,0.6593965291976929,0.19834083318710327
1758301351673130000,6.7221298828125,0.04648665711283684,0.6915518045425415,0.18562015891075134
1758301351683103000,6.73210302734375,0.06209570914506912,0.7538183927536011,0.0959845557808876
1758301351693077000,6.742076904296875,0.058347322046756744,0.8387974500656128,-0.020069990307092667
1758301351703051000,6.752051025390625,0.05932923033833504,0.8926960825920105,-0.10928934812545776
1758301351713025000,6.76202490234375,0.06562497466802597,1.0205698013305664,-0.15639466047286987
1758301351722998000,6.771998046875,0.09813445061445236,1.0928034782409668,-0.1866534948348999
1758301351732972000,6.781971923828125,0.21220090985298157,1.0420347452163696,-0.2222181260585785
1758301351742946000,6.791946044921875,0.3770686984062195,0.9343320727348328,-0.20107929408550262
1758301351752920000,6.801920166015625,0.4701530635356903,0.9702467918395996,-0.14522098004817963
1758301351762893300,6.811893310546875,0.4370307922363281,1.266027569770813,-0.2070436030626297
1758301351772867300,6.821867431640625,0.4301794767379761,1.545621633529663,-0.26539650559425354
1758301351782841000,6.831841064453125,0.46097415685653687,1.0209351778030396,-0.07015963643789291
1758301351792815000,6.841815185546875,0.27228525280952454,0.6096992492675781,0.15692734718322754
1758301351802788000,6.8517880859375,-0.14791283011436462,0.427735298871994,0.3198004364967346
1758301351812762000,6.86176220703125,-0.523746907711029,0.6282562613487244,0.426780641078949
1758301351822736100,6.871736083984375,-0.5308464169502258,1.1811027526855469,0.36222508549690247
1758301351832710100,6.881710205078125,-0.32693976163864136,1.4486253261566162,0.14546938240528107
1758301351842683100,6.89168310546875,-0.24434635043144226,1.3976049423217773,-0.06326039135456085
1758301351852657200,6.9016572265625,-0.2415236383676529,1.2436813116073608,-0.20331180095672607
1758301351862631200,6.911631103515625,-0.24522942304611206,1.1369445323944092,-0.3002498149871826
1758301351872605200,6.921605224609375,-0.2190731167793274,1.0282098054885864,-0.29381293058395386
1758301351882579200,6.9315791015625,-0.14871585369110107,0.8482242822647095,-0.06154134124517441
1758301351892552200,6.94155224609375,-0.09134938567876816,0.7197507619857788,0.34608420729637146
1758301351902526200,6.951526123046875,-0.04155493527650833,0.6664121747016907,0.7169005870819092
1758301351912500200,6.961500244140625,0.015118897892534733,0.6151542663574219,0.8900856375694275
1758301351922473200,6.97147314453125,0.09664784371852875,0.5835148692131042,0.8685662150382996
1758301351932447200,6.981447265625,0.21026650071144104,0.5717434883117676,0.7617486715316772
1758301351942421200,6.991421142578125,0.33950942754745483,0.5023026466369629,0.6645006537437439
1758301351952395300,7.001395263671875,0.41620004177093506,0.5111009478569031,0.6033099293708801
1758301351962369300,7.011369384765625,0.39772969484329224,0.6319770216941833,0.5810778737068176
1758301351972342000,7.021342041015625,0.32920145988464355,0.7664723992347717,0.5948957800865173
1758301351982316000,7.03131591796875,0.2495734840631485,0.8327164053916931,0.6237777471542358
1758301351992290000,7.0412900390625,0.1836109459400177,0.8280879855155945,0.6366377472877502
1758301352002264000,7.05126416015625,0.12753169238567352,0.7766477465629578,0.6269004344940186
1758301352012237000,7.061237060546875,0.08088211715221405,0.7150073647499084,0.6112139225006104
1758301352022211000,7.071211181640625,0.04499735310673714,0.6630136966705322,0.6114024519920349
1758301352032185000,7.08118505859375,0.02177063375711441,0.6097055673599243,0.6230370998382568
1758301352042159000,7.0911591796875,0.008964025415480137,0.5813998579978943,0.6381526589393616
1758301352052132000,7.101132080078125,0.003609769744798541,0.5692752003669739,0.6462876796722412
1758301352062106000,7.111106201171875,0.000925835978705436,0.5586366653442383,0.635540783405304
1758301352072080100,7.121080078125,-0.00032573152566328645,0.5358017683029175,0.6079017519950867
1758301352082054100,7.13105419921875,-0.004014742560684681,0.5022366046905518,0.5765914916992188
1758301352092027100,7.141027099609375,-0.007993611507117748,0.46219372749328613,0.5415577292442322
1758301352102001200,7.151001220703125,-0.007370431441813707,0.40990230441093445,0.5094820857048035
1758301352111975200,7.16097509765625,-0.01772286556661129,0.30811330676078796,0.49370571970939636
1758301352121949200,7.17094921875,-0.0016618750523775816,0.3087950646877289,0.47938671708106995
1758301352131922000,7.180921875,0.006906438153237104,0.25666141510009766,0.4698340892791748
1758301352141896000,7.19089599609375,0.009319261647760868,0.21045342087745667,0.467616468667984
1758301352151870000,7.200869873046875,-0.0007145530544221401,0.1754901260137558,0.47151410579681396
1758301352161844000,7.210843994140625,-0.004429396707564592,0.15251584351062775,0.48021626472473145
1758301352171818000,7.22081787109375,-0.007933086715638638,0.13336361944675446,0.477887898683548
1758301352181791000,7.230791015625,-0.0096327168866992,0.12060441076755524,0.46032246947288513
1758301352191765000,7.240764892578125,-0.011345934122800827,0.12102224677801132,0.43731987476348877
1758301352201739000,7.250739013671875,-0.02104276791214943,0.1268947869539261,0.4132470190525055
1758301352211713000,7.260713134765625,-0.0312422513961792,0.127515509724617,0.396556556224823
1758301352221686000,7.27068603515625,-0.04164855182170868,0.12016624212265015,0.3998950719833374
1758301352231660000,7.280659912109375,-0.05254373326897621,0.11049200594425201,0.40556153655052185
1758301352241634000,7.290634033203125,-0.05770866572856903,0.11047336459159851,0.39302414655685425
1758301352251608000,7.300608154296875,-0.06301293522119522,0.12472381442785263,0.36485153436660767
1758301352261581000,7.3105810546875,-0.08004331588745117,0.13611441850662231,0.33527711033821106
1758301352271555000,7.32055517578125,-0.10298118740320206,0.14456707239151,0.30359578132629395
1758301352281529000,7.330529052734375,-0.13021492958068848,0.14850163459777832,0.2602277994155884
1758301352291503000,7.340503173828125,-0.15043170750141144,0.12979741394519806,0.2082306444644928
1758301352301476000,7.35047607421875,-0.16732840240001678,0.08892402052879333,0.16183863580226898
1758301352311450000,7.3604501953125,-0.18029683828353882,0.03507549315690994,0.1335868537425995
1758301352321424100,7.370424072265625,-0.19053882360458374,0.013480983674526215,0.09985178709030151
1758301352331398000,7.38039794921875,-0.20625022053718567,-0.02466343529522419,0.05798981338739395
1758301352341372000,7.390371826171875,-0.22811849415302277,-0.06350750476121902,0.019851483404636383
1758301352351345200,7.40034521484375,-0.26545676589012146,-0.09589886665344238,-0.01958581618964672
1758301352361319200,7.410319091796875,-0.2879370450973511,-0.11243123561143875,-0.01777646504342556
1758301352371293400,7.42029345703125,-0.29730159044265747,-0.10179055482149124,0.06141813471913338
1758301352381267500,7.430267333984375,-0.314298152923584,-0.06480244547128677,0.18507881462574005
1758301352391240700,7.44024072265625,-0.2942822575569153,-0.023569444194436073,0.3044688403606415
1758301352401214700,7.450214599609375,-0.25565391778945923,0.053143709897994995,0.37566497921943665
1758301352411188500,7.4601884765625,-0.21930159628391266,0.13818664848804474,0.3599780797958374
1758301352421162500,7.47016259765625,-0.19201430678367615,0.20308122038841248,0.2860202491283417
1758301352431135500,7.480135498046875,-0.18620161712169647,0.214131698012352,0.22141773998737335
1758301352441109500,7.490109619140625,-0.19746625423431396,0.15787294507026672,0.1713939905166626
1758301352451083500,7.50008349609375,-0.24017338454723358,0.09466689825057983,0.14200659096240997
1758301352461057500,7.5100576171875,-0.3259442150592804,0.08238120377063751,0.11543277651071548
1758301352471030500,7.520030517578125,-0.42085015773773193,0.0917605385184288,0.05964960902929306
1758301352481004500,7.530004638671875,-0.49030569195747375,0.08021627366542816,-0.01960952952504158
1758301352490978600,7.539978515625,-0.5082880854606628,0.034671951085329056,-0.10711202025413513
1758301352500952600,7.54995263671875,-0.48474153876304626,-0.029716361314058304,-0.17771881818771362
1758301352510926600,7.559926513671875,-0.42395755648612976,-0.07572111487388611,-0.2193731665611267
1758301352520899600,7.569899658203125,-0.344822496175766,-0.06873591244220734,-0.22202566266059875
1758301352530873600,7.57987353515625,-0.25090378522872925,-0.06096920743584633,-0.20647621154785156
1758301352540847600,7.58984765625,-0.16277311742305756,-0.04767230898141861,-0.19193348288536072
1758301352550821600,7.599821533203125,-0.0776233971118927,-0.03535085916519165,-0.19524268805980682
1758301352560794600,7.609794677734375,-0.0010396706638857722,-0.014547044411301613,-0.21511945128440857
1758301352570768600,7.6197685546875,0.05334187299013138,0.011690091341733932,-0.25705328583717346
1758301352580742700,7.62974267578125,0.08168642967939377,0.02810049057006836,-0.31387636065483093
1758301352590716700,7.639716552734375,0.088026262819767,0.04424992576241493,-0.36783286929130554
1758301352600689400,7.649689453125,0.05978291109204292,0.08273979276418686,-0.41341474652290344
1758301352610663400,7.659663330078125,0.010036480613052845,0.15094280242919922,-0.4411841630935669
1758301352620637400,7.669637451171875,-0.06035326421260834,0.2539733052253723,-0.45520520210266113
1758301352630611500,7.679611572265625,-0.12068098783493042,0.31972989439964294,-0.46608272194862366
1758301352640585500,7.68958544921875,-0.17146027088165283,0.33445292711257935,-0.4948890805244446
1758301352650558500,7.699558349609375,-0.20266996324062347,0.34406712651252747,-0.5337721109390259
1758301352660532500,7.709532470703125,-0.22342956066131592,0.3442562222480774,-0.5468927025794983
1758301352670506500,7.719506591796875,-0.24236032366752625,0.3327134847640991,-0.5287895202636719
1758301352680480500,7.72948046875,-0.26139765977859497,0.340938925743103,-0.5240938067436218
1758301352690453500,7.73945361328125,-0.28949832916259766,0.34779876470565796,-0.5230908393859863
1758301352700427500,7.749427490234375,-0.3220165967941284,0.281743586063385,-0.47907647490501404
1758301352710401500,7.759401611328125,-0.36150887608528137,0.20884698629379272,-0.4170236587524414
1758301352720375600,7.76937548828125,-0.41357553005218506,0.19327948987483978,-0.3752540946006775
1758301352730348500,7.7793486328125,-0.47776544094085693,0.1352771669626236,-0.37337321043014526
1758301352740322600,7.789322509765625,-0.5467128753662109,0.06849999725818634,-0.35520803928375244
1758301352750296600,7.799296630859375,-0.6424908638000488,-0.01779208518564701,-0.33656322956085205
1758301352760270600,7.8092705078125,-0.7521153688430786,-0.11555139720439911,-0.26966381072998047
1758301352770244600,7.81924462890625,-0.8469660878181458,-0.19226622581481934,-0.15505200624465942
1758301352780217300,7.82921728515625,-0.924288809299469,-0.2755746841430664,-0.009622374549508095
1758301352790191400,7.83919140625,-0.944040834903717,-0.30833882093429565,0.14456026256084442
1758301352800165400,7.849165283203125,-0.8624436855316162,-0.3584723174571991,0.24370121955871582
1758301352810139400,7.859139404296875,-0.6886072754859924,-0.3490945100784302,0.26709091663360596
1758301352820112400,7.8691123046875,-0.501704752445221,-0.2631921172142029,0.22564919292926788
1758301352830086400,7.87908642578125,-0.3464660346508026,-0.1902965009212494,0.1546950787305832
1758301352840060400,7.889060302734375,-0.2501096725463867,-0.10349715501070023,0.07169579714536667
1758301352850034400,7.899034423828125,-0.20370636880397797,-0.019127257168293,0.004828590899705887
1758301352860007400,7.90900732421875,-0.17893870174884796,0.075193390250206,-0.013063057325780392
1758301352869981400,7.9189814453125,-0.17925959825515747,0.1386517435312271,0.008045392110943794
1758301352879955500,7.92895556640625,-0.18861821293830872,0.17020460963249207,0.0047728996723890305
1758301352889929500,7.938929443359375,-0.19929563999176025,0.20559987425804138,-0.04527977108955383
1758301352899903500,7.948903564453125,-0.18344689905643463,0.2596748173236847,-0.12855681777000427
1758301352909876500,7.95887646484375,-0.11910253018140793,0.3071552515029907,-0.23076608777046204
1758301352919850500,7.9688505859375,-0.0806073397397995,0.30743807554244995,-0.2972167432308197
1758301352929824500,7.978824462890625,-0.06931377202272415,0.2882358133792877,-0.2870281934738159
1758301352939798500,7.988798583984375,-0.05402962863445282,0.27493467926979065,-0.22998835146427155
1758301352949771500,7.998771484375,-0.02003445476293564,0.257232129573822,-0.17562498152256012
1758301352959745300,8.008745361328126,0.023852575570344925,0.22784948348999023,-0.14977607131004333
1758301352969719300,8.01871923828125,0.07882806658744812,0.2021111696958542,-0.15049073100090027
1758301352979693300,8.028693359375,0.13662664592266083,0.19609776139259338,-0.15198583900928497
1758301352989667300,8.038667236328125,0.17318032681941986,0.20620715618133545,-0.155494824051857
1758301352999640600,8.048640625,0.19260436296463013,0.21837061643600464,-0.15274645388126373
1758301353009614600,8.058614501953125,0.22501309216022491,0.2457389086484909,-0.16151456534862518
1758301353019588400,8.06858837890625,0.25580960512161255,0.23138685524463654,-0.14405541121959686
1758301353029562400,8.078562255859374,0.3308629095554352,0.3055587708950043,-0.13786017894744873
1758301353039535600,8.08853564453125,0.4102400243282318,0.3048620820045471,-0.18137143552303314
1758301353049509600,8.098509521484376,0.40832921862602234,0.2580946087837219,-0.229339137673378
1758301353059483600,8.108483642578125,0.3140961825847626,0.24211165308952332,-0.4285409450531006
1758301353069457400,8.11845751953125,0.13714654743671417,0.10838720947504044,-0.47195231914520264
1758301353079431400,8.128431396484375,0.09456579387187958,0.047780051827430725,-0.2688990831375122
1758301353089404700,8.13840478515625,0.27500832080841064,0.10069744288921356,-0.006682607810944319
1758301353099378700,8.148378662109375,0.342448890209198,0.15192416310310364,0.31807470321655273
1758301353109352700,8.158352783203124,0.10065203160047531,0.14644119143486023,0.6358491778373718
1758301353119326500,8.168326416015624,-0.19212789833545685,0.17985348403453827,0.8661412596702576
1758301353129299500,8.178299560546876,-0.3533230721950531,0.3085598945617676,0.9111199975013733
1758301353139273500,8.1882734375,-0.29563501477241516,0.3736360967159271,0.7098856568336487
1758301353149247500,8.19824755859375,-0.11694716662168503,0.40046828985214233,0.39149996638298035
1758301353159221500,8.208221435546875,-0.012973632663488388,0.4904429316520691,0.14638154208660126
1758301353169195500,8.218195556640625,-0.037576593458652496,0.5637001991271973,0.06503881514072418
1758301353179168500,8.22816845703125,-0.0660625621676445,0.5698473453521729,0.08663039654493332
1758301353189142500,8.238142578125,-0.011429384350776672,0.5409324169158936,0.10579705238342285
1758301353199116500,8.248116455078126,0.12508425116539001,0.47169873118400574,0.10408996790647507
1758301353209090600,8.258090576171876,0.2334776669740677,0.4082127511501312,0.08880103379487991
1758301353219063600,8.2680634765625,0.24998794496059418,0.3646165430545807,0.08374129235744476
1758301353229037600,8.27803759765625,0.20245899260044098,0.34964868426322937,0.08245589584112167
1758301353239011600,8.288011474609375,0.16993780434131622,0.2773851156234741,0.10236062854528427
1758301353248985600,8.297985595703125,0.1952134221792221,0.1574309915304184,0.13726970553398132
1758301353258959600,8.307959716796875,0.2545238733291626,0.03295111283659935,0.179677352309227
1758301353268932600,8.3179326171875,0.3127863109111786,-0.05270606651902199,0.1990080028772354
1758301353278906600,8.32790673828125,0.3671693801879883,-0.07669715583324432,0.17611494660377502
1758301353288880600,8.337880615234376,0.42765527963638306,-0.054871171712875366,0.13711141049861908
1758301353298854700,8.347854736328125,0.4657813608646393,-0.013207081705331802,0.11797820031642914
1758301353308828700,8.35782861328125,0.4889809191226959,0.023148395121097565,0.1460450440645218
1758301353318801400,8.367801513671875,0.49346086382865906,0.06904371827840805,0.19885925948619843
1758301353328775400,8.377775390625,0.4812683165073395,0.12170936912298203,0.25960949063301086
1758301353338749400,8.38774951171875,0.428819477558136,0.1709003448486328,0.32084834575653076
1758301353348723500,8.397723388671874,0.3610849678516388,0.2045852094888687,0.37725910544395447
1758301353358696400,8.407696533203126,0.2954234182834625,0.21367430686950684,0.4047250747680664
1758301353368670500,8.41767041015625,0.24791476130485535,0.20033863186836243,0.39996829628944397
1758301353378644500,8.42764453125,0.1962164044380188,0.18043948709964752,0.3995821475982666
1758301353388618500,8.437618408203125,0.14811371266841888,0.18836912512779236,0.4073915481567383
1758301353398592300,8.44759228515625,0.11916941404342651,0.20347164571285248,0.39641374349594116
1758301353408565200,8.457565185546875,0.10574034601449966,0.19706013798713684,0.3818904459476471
1758301353418539300,8.467539306640624,0.08938641101121902,0.164568230509758,0.38907381892204285
1758301353428513300,8.47751318359375,0.07193740457296371,0.13631431758403778,0.422273188829422
1758301353438487300,8.4874873046875,0.06623876839876175,0.0955173671245575,0.45278555154800415
1758301353448460300,8.497460205078125,0.06423954665660858,-0.057139813899993896,0.48820221424102783
1758301353458434300,8.507434326171875,0.07285673916339874,-0.009365634992718697,0.5216760039329529
1758301353468408300,8.517408203125,0.10706739127635956,-0.033178407698869705,0.4953804612159729
1758301353478382300,8.52738232421875,0.1344636082649231,-0.13722731173038483,0.4591819643974304
1758301353488356400,8.5373564453125,0.1551731377840042,-0.19710448384284973,0.4358077645301819
1758301353498329300,8.547329345703124,0.16983650624752045,-0.23333945870399475,0.4367891252040863
1758301353508303400,8.557303466796874,0.1746433824300766,-0.2500946521759033,0.43276557326316833
1758301353518277400,8.56727734375,0.17357438802719116,-0.26587626338005066,0.4204433858394623
1758301353528251400,8.57725146484375,0.17830508947372437,-0.26952889561653137,0.4132820665836334
1758301353538225400,8.587225341796875,0.17994825541973114,-0.20683063566684723,0.38472098112106323
1758301353548198400,8.597198486328125,0.17523302137851715,-0.19487151503562927,0.3379100561141968
1758301353558172400,8.60717236328125,0.17318052053451538,-0.1677379012107849,0.28804317116737366
1758301353568146400,8.617146484375,0.16663776338100433,-0.1295393854379654,0.25585195422172546
1758301353578120200,8.6271201171875,0.14856554567813873,-0.0986054465174675,0.24482087790966034
1758301353588094200,8.63709423828125,0.12858709692955017,-0.06714452803134918,0.23032072186470032
1758301353598067200,8.647067138671876,0.11869185417890549,-0.03788917139172554,0.1883050948381424
1758301353608041200,8.657041259765625,0.12056540697813034,-0.013207769021391869,0.12450983375310898
1758301353618015200,8.66701513671875,0.12449303269386292,-0.005790865980088711,0.051031358540058136
1758301353627989200,8.6769892578125,0.13267670571804047,-0.017031950876116753,-0.01303972490131855
1758301353637962200,8.686962158203125,0.152157723903656,-0.04402921348810196,-0.067901112139225
1758301353647936300,8.696936279296875,0.17081743478775024,-0.08632553368806839,-0.09845662117004395
1758301353657910300,8.70691015625,0.1755962073802948,-0.22849439084529877,-0.084143728017807
1758301353667884300,8.71688427734375,0.20863747596740723,-0.3282783627510071,-0.04238221049308777
1758301353677858300,8.7268583984375,0.24158450961112976,-0.17065438628196716,-0.04442272707819939
1758301353687831300,8.736831298828125,0.26909077167510986,-0.1011083573102951,-0.07189314067363739
1758301353697805300,8.746805419921875,0.30601951479911804,-0.09029538929462433,-0.0681825578212738
1758301353707779300,8.756779296875,0.28715646266937256,-0.10033995658159256,-0.009898155927658081
1758301353717753300,8.76675341796875,0.20465199649333954,-0.055302172899246216,0.05038808658719063
1758301353727727400,8.776727294921875,0.13488483428955078,0.11808145046234131,0.03410017490386963
1758301353737700400,8.786700439453124,0.10119078308343887,0.2664773166179657,-0.09434488415718079
1758301353747674400,8.79667431640625,0.08029428869485855,0.2794402539730072,-0.21349763870239258
1758301353757648400,8.8066484375,0.06708154827356339,0.1636931598186493,-0.20006971061229706
1758301353767622100,8.8166220703125,0.012786614708602428,0.06068180128931999,-0.06891230493783951
1758301353777596200,8.82659619140625,-0.08678125590085983,-0.01560018490999937,0.05934979394078255
1758301353787569400,8.8365693359375,-0.22139500081539154,-0.0711013451218605,0.10749895125627518
1758301353797543200,8.846543212890625,-0.35056790709495544,-0.1429947167634964,0.07394765317440033
1758301353807517200,8.85651708984375,-0.4210912883281708,-0.21728640794754028,0.014055599458515644
1758301353817491200,8.8664912109375,-0.4114876687526703,-0.28542202711105347,-0.01205269992351532
1758301353827465200,8.87646533203125,-0.37119054794311523,-0.35472482442855835,-0.005398478824645281
1758301353837438500,8.8864384765625,-0.3272547721862793,-0.4256288409233093,-0.021661603823304176
1758301353847412200,8.896412109375,-0.2645467519760132,-0.506727933883667,-0.09985316544771194
1758301353857386200,8.90638623046875,-0.18092000484466553,-0.6616355180740356,-0.17983348667621613
1758301353867360300,8.9163603515625,-0.0630580261349678,-0.5457541942596436,-0.32322898507118225
1758301353877334300,8.926334228515625,0.035995859652757645,-0.4615594148635864,-0.49091705679893494
1758301353887307500,8.9363076171875,0.11888960003852844,-0.43089625239372253,-0.612572968006134
1758301353897281500,8.946281494140624,0.17112217843532562,-0.4555020034313202,-0.6281324625015259
1758301353907255300,8.95625537109375,0.19742979109287262,-0.46211111545562744,-0.5667660236358643
1758301353917229300,8.966229248046876,0.1712498515844345,-0.4408489763736725,-0.5020456314086914
1758301353927202600,8.97620263671875,0.08947426080703735,-0.35234904289245605,-0.5240293145179749
1758301353937176600,8.986176513671875,-0.026223845779895782,-0.2184000313282013,-0.6700613498687744
1758301353947150600,8.996150634765625,-0.15472175180912018,-0.1442989856004715,-0.8332937359809875
1758301353957124400,9.006124267578125,-0.27646201848983765,-0.1374722421169281,-0.9201913475990295
1758301353967098000,9.01609814453125,-0.3785047233104706,-0.1195894107222557,-0.8883568644523621
1758301353977071400,9.0260712890625,-0.4656800925731659,-0.10217659175395966,-0.7713466286659241
1758301353987045400,9.03604541015625,-0.5393802523612976,-0.08669742941856384,-0.6164018511772156
1758301353997019400,9.046019287109376,-0.5880322456359863,-0.05094848945736885,-0.4826943576335907
1758301354006993400,9.055993408203125,-0.610069215297699,-0.07276599109172821,-0.4086357057094574
1758301354016967400,9.065967529296875,-0.592941403388977,-0.15999409556388855,-0.3692938983440399
1758301354026940400,9.0759404296875,-0.5482987761497498,-0.24433229863643646,-0.32964766025543213
1758301354036914400,9.08591455078125,-0.5062605142593384,-0.28437983989715576,-0.2744341790676117
1758301354046888400,9.095888427734375,-0.4630875587463379,-0.28644442558288574,-0.20554225146770477
1758301354056862500,9.105862548828124,-0.45040613412857056,-0.27472224831581116,-0.1400146484375
1758301354066836500,9.11583642578125,-0.4662230908870697,-0.34462448954582214,-0.082117959856987
1758301354076809500,9.1258095703125,-0.5146287679672241,-0.45889195799827576,-0.020690545439720154
1758301354086783500,9.135783447265625,-0.5915368795394897,-0.5718008875846863,0.08169440180063248
1758301354096757500,9.145757568359375,-0.6599045395851135,-0.599980354309082,0.17670772969722748
1758301354106731500,9.1557314453125,-0.6522711515426636,-0.605542778968811,0.2490481436252594
1758301354116705500,9.16570556640625,-0.5868897438049316,-0.589342474937439,0.2641914188861847
1758301354126678500,9.175678466796874,-0.4868231415748596,-0.546535849571228,0.22383657097816467
1758301354136652300,9.18565234375,-0.3786247670650482,-0.4776528775691986,0.15758298337459564
1758301354146626300,9.195626220703126,-0.31535348296165466,-0.3735862076282501,0.11560031771659851
1758301354156600300,9.205600341796876,-0.29718542098999023,-0.2978549897670746,0.07566169649362564
1758301354166574300,9.21557421875,-0.30552923679351807,-0.2110491693019867,-0.0028418442234396935
1758301354176547300,9.22554736328125,-0.33082181215286255,-0.16939972341060638,-0.10755414515733719
1758301354186521300,9.235521240234375,-0.3469700217247009,-0.14477969706058502,-0.1867600530385971
1758301354196495400,9.245495361328125,-0.36483079195022583,-0.13319042325019836,-0.2070903480052948
1758301354206469400,9.255469482421875,-0.3815270960330963,-0.0849001333117485,-0.18868578970432281
1758301354216443400,9.265443359375,-0.3524925112724304,-0.04983535408973694,-0.17785444855690002
1758301354226416400,9.27541650390625,-0.29520389437675476,-0.010234476067125797,-0.177866131067276
1758301354236390400,9.285390380859376,-0.2528785169124603,0.014520404860377312,-0.1654275804758072
1758301354246364400,9.295364501953125,-0.2031993269920349,0.029099753126502037,-0.1386803537607193
1758301354256338400,9.30533837890625,-0.13593986630439758,0.020657533779740334,-0.08983372151851654
1758301354266312400,9.3153125,-0.08078999072313309,-0.009406136348843575,-0.03631703928112984
1758301354276285400,9.325285400390625,-0.03710669279098511,-0.03151916339993477,-0.010174650698900223
1758301354286259500,9.335259521484375,0.01251863595098257,-0.028940172865986824,-0.021435189992189407
1758301354296233500,9.3452333984375,0.06205316632986069,-0.0029383988585323095,-0.046686749905347824
1758301354306207500,9.35520751953125,0.09667129069566727,0.049195796251297,-0.07387173175811768
1758301354316181500,9.365181396484376,0.14419513940811157,0.04139672964811325,-0.07565072178840637
1758301354326155500,9.375155517578126,0.24849896132946014,0.0327029675245285,-0.05192236602306366
1758301354336128300,9.385128173828125,0.3321738839149475,0.06275887042284012,-0.04920753836631775
1758301354346102300,9.395102294921875,0.290964812040329,0.031324442476034164,-0.02014736644923687
1758301354356076300,9.405076171875,0.15078586339950562,0.01997537910938263,-0.1331242471933365
1758301354366050300,9.41505029296875,-0.03183082118630409,-0.07690110057592392,-0.33264169096946716
1758301354376024000,9.425024169921874,-0.16193902492523193,-0.19376887381076813,-0.33101344108581543
1758301354385997000,9.4349970703125,-0.09979032725095749,-0.1410645693540573,-0.17343777418136597
1758301354395971000,9.44497119140625,0.05088573321700096,-0.08212802559137344,0.11211968213319778
1758301354405945000,9.454945068359375,0.04235425963997841,-0.037339892238378525,0.4085257947444916
1758301354415919000,9.464919189453125,-0.1022053211927414,-0.047990672290325165,0.6160683631896973
1758301354425893000,9.47489306640625,-0.22229228913784027,0.05375035107135773,0.7191905975341797
1758301354435866000,9.4848662109375,-0.22273996472358704,0.16806599497795105,0.6926652789115906
1758301354445840100,9.494840087890625,-0.10823789983987808,0.21370619535446167,0.5269638895988464
1758301354455814100,9.504814208984374,0.019146958366036415,0.2583812475204468,0.306306391954422
1758301354465788200,9.5147880859375,0.04546412453055382,0.368615061044693,0.15687084197998047
1758301354475762200,9.52476220703125,0.046239107847213745,0.4614051580429077,0.1294783651828766
1758301354485735200,9.534735107421875,0.06190416216850281,0.5119926333427429,0.16334766149520874
1758301354495709200,9.544709228515625,0.12863871455192566,0.5015623569488525,0.18574245274066925
1758301354505683200,9.55468310546875,0.21506987512111664,0.4609633982181549,0.1829904019832611
1758301354515657200,9.5646572265625,0.27158161997795105,0.3957197070121765,0.16091039776802063
1758301354525631200,9.57463134765625,0.24761590361595154,0.3809191584587097,0.10327702015638351
1758301354535604000,9.58460400390625,0.20608949661254883,0.356468141078949,0.02051636204123497
1758301354545578000,9.594577880859376,0.2090633660554886,0.3154408037662506,-0.05195534974336624
1758301354555552000,9.604552001953126,0.2660054862499237,0.21753448247909546,-0.09086120128631592
1758301354565526000,9.614526123046875,0.34888213872909546,0.0710267424583435,-0.1009395644068718
1758301354575500000,9.6245,0.4303133487701416,-0.023940518498420715,-0.0825837254524231
1758301354585473000,9.63447314453125,0.4855049252510071,-0.007309200707823038,-0.07435255497694016
1758301354595447000,9.644447021484375,0.520115315914154,0.002144488040357828,-0.0383378341794014
1758301354605421000,9.654421142578125,0.5532586574554443,0.023235777392983437,0.04136023670434952
1758301354615395000,9.66439501953125,0.570910632610321,0.05958632752299309,0.13878798484802246
1758301354625369000,9.674369140625,0.5535259246826172,0.0976824015378952,0.2259288877248764
1758301354635343000,9.684343017578126,0.5075973272323608,0.1448001116514206,0.3037909269332886
1758301354645316000,9.694316162109375,0.44640427827835083,0.17850391566753387,0.36828216910362244
1758301354655290000,9.7042900390625,0.37755489349365234,0.20172853767871857,0.4331927001476288
1758301354665264000,9.71426416015625,0.3031073808670044,0.21882033348083496,0.4750923812389374
1758301354675238100,9.724238037109375,0.22851280868053436,0.23100696504116058,0.4845484495162964
1758301354685212200,9.734212158203125,0.16461330652236938,0.23177218437194824,0.46669697761535645
1758301354695185200,9.74418505859375,0.10507409274578094,0.2172241359949112,0.4485110640525818
1758301354705159200,9.7541591796875,0.05094892531633377,0.21230082213878632,0.42705777287483215
1758301354715133200,9.76413330078125,0.010777270421385765,0.20018982887268066,0.40908727049827576
1758301354725107200,9.774107177734376,-0.021953264251351357,0.20164097845554352,0.3772234618663788
1758301354735081200,9.784081298828125,-0.030983243137598038,0.19247651100158691,0.34485167264938354
1758301354745054000,9.794053955078125,-0.023143654689192772,0.14599168300628662,0.31881585717201233
1758301354755028000,9.804028076171875,-0.0033419854007661343,0.11994436383247375,0.3103909492492676
1758301354765002000,9.814001953125,0.02486281469464302,0.08115191012620926,0.31299057602882385
1758301354774976000,9.82397607421875,0.06184879690408707,-0.0003860917058773339,0.3231430947780609
1758301354784950000,9.833949951171874,0.11112356930971146,-0.08646778017282486,0.34818142652511597
1758301354794924000,9.843924072265626,0.15456345677375793,-0.13655544817447662,0.39000290632247925
1758301354804897000,9.85389697265625,0.18025845289230347,-0.15855972468852997,0.4193646013736725
1758301354814871000,9.86387109375,0.19746486842632294,-0.16541443765163422,0.4287855327129364
1758301354824845000,9.873844970703125,0.2047816962003708,-0.1518431007862091,0.41653305292129517
1758301354834819000,9.883819091796875,0.2081010490655899,-0.11563662439584732,0.3824182152748108
1758301354844793000,9.89379296875,0.20662055909633636,-0.04357479512691498,0.3385489881038666
1758301354854766000,9.90376611328125,0.1972411721944809,0.05743331089615822,0.2915324866771698
1758301354864740000,9.913739990234374,0.17349548637866974,0.13445362448692322,0.24200688302516937
1758301354874714000,9.923714111328126,0.14121024310588837,0.19992797076702118,0.194701686501503
1758301354884688100,9.933688232421876,0.10967180877923965,0.2665393352508545,0.14937011897563934
1758301354894662100,9.943662109375,0.08887331932783127,0.30179691314697266,0.10841922461986542
1758301354904636200,9.95363623046875,0.07420599460601807,0.3119141161441803,0.07644642144441605
1758301354914609200,9.963609130859375,0.06287824362516403,0.30080127716064453,0.05138447880744934
1758301354924583200,9.973583251953125,0.06729702651500702,0.28779569268226624,0.024942418560385704
1758301354934557200,9.98355712890625,0.08050018548965454,0.27878034114837646,0.016809923574328423
1758301354944531200,9.99353125,0.12994123995304108,0.2579333782196045,0.006655289325863123
1758301354954505200,10.003505126953126,0.21957658231258392,0.19138072431087494,0.01661045104265213
1758301354964478000,10.01347802734375,0.2888350486755371,0.04607558622956276,0.10020232945680618
1758301354974452000,10.023451904296875,0.306963175535202,-0.032359302043914795,0.27912625670433044
1758301354984426000,10.033426025390625,0.19386287033557892,0.046911198645830154,0.389285683631897
1758301354994400000,10.04339990234375,-0.012486566789448261,0.12597724795341492,0.33877670764923096
1758301355004374000,10.0533740234375,-0.18131250143051147,0.16752095520496368,0.12827715277671814
1758301355014348000,10.06334814453125,-0.2305154800415039,0.08992761373519897,-0.1441248208284378
1758301355024321000,10.073321044921874,-0.14737296104431152,-0.06138506531715393,-0.3251493275165558
1758301355034295000,10.083294921875,-0.054861679673194885,-0.2217092216014862,-0.33615642786026
1758301355044269000,10.09326904296875,-0.041621025651693344,-0.3230038285255432,-0.2387486845254898
1758301355054243000,10.1032431640625,-0.057158973067998886,-0.39299145340919495,-0.15627405047416687
1758301355064217000,10.113217041015625,-0.03890640661120415,-0.4478451609611511,-0.16260001063346863
1758301355074190000,10.123190185546875,0.0052538649179041386,-0.5080264210700989,-0.21871493756771088
1758301355084164000,10.1331640625,0.02836560271680355,-0.57438063621521,-0.2562187612056732
1758301355094138000,10.14313818359375,0.03431110829114914,-0.621753990650177,-0.2563130259513855
1758301355104112000,10.153112060546874,0.04926037788391113,-0.6497247815132141,-0.26417893171310425
1758301355114086100,10.163086181640624,0.0881289467215538,-0.6280035376548767,-0.3005259931087494
1758301355124060200,10.17306005859375,0.12792935967445374,-0.5662064552307129,-0.3588087558746338
1758301355134033200,10.183033203125,0.1593887358903885,-0.4890475273132324,-0.4345186948776245
1758301355144007200,10.193007080078125,0.1680922955274582,-0.41416293382644653,-0.5084943771362305
1758301355153981200,10.202981201171875,0.15802821516990662,-0.36794134974479675,-0.587049663066864
1758301355163955200,10.212955078125,0.14670994877815247,-0.3426535427570343,-0.6716941595077515
1758301355173929200,10.22292919921875,0.12507867813110352,-0.29019513726234436,-0.7699759602546692
1758301355183902000,10.23290185546875,0.07923697680234909,-0.24335816502571106,-0.8505586385726929
1758301355193876000,10.2428759765625,0.010127149522304535,-0.22760982811450958,-0.8999096751213074
1758301355203850000,10.25285009765625,-0.07303009927272797,-0.24709177017211914,-0.8959517478942871
1758301355213824000,10.262823974609375,-0.16330885887145996,-0.25145721435546875,-0.8337807655334473
1758301355223798000,10.272798095703125,-0.2405657023191452,-0.2680307626724243,-0.7312756180763245
1758301355233772000,10.28277197265625,-0.2855693995952606,-0.2881176769733429,-0.6139354109764099
1758301355243745000,10.2927451171875,-0.29902780055999756,-0.2978383004665375,-0.49933871626853943
1758301355253719000,10.302718994140625,-0.30707108974456787,-0.322305291891098,-0.42787280678749084
1758301355263693000,10.312693115234374,-0.32356762886047363,-0.3866114020347595,-0.39780551195144653
1758301355273667000,10.3226669921875,-0.32565632462501526,-0.4219509959220886,-0.3492954969406128
1758301355283641000,10.33264111328125,-0.3237358331680298,-0.4297541081905365,-0.30377933382987976
1758301355293615000,10.342614990234376,-0.32699820399284363,-0.4151679575443268,-0.2585487365722656
1758301355303588000,10.352588134765625,-0.3330000042915344,-0.37680280208587646,-0.23069514334201813
1758301355313562000,10.36256201171875,-0.3480159640312195,-0.35978811979293823,-0.21878787875175476
1758301355323536100,10.3725361328125,-0.393543004989624,-0.37001654505729675,-0.19299177825450897
1758301355333510100,10.38251025390625,-0.45116397738456726,-0.4218808114528656,-0.13424430787563324
1758301355343484200,10.392484130859375,-0.5028527975082397,-0.5151651501655579,-0.05475447326898575
1758301355353457200,10.40245703125,-0.5198752284049988,-0.5680750012397766,-0.0003120026085525751
1758301355363431200,10.41243115234375,-0.5057854056358337,-0.5468408465385437,0.03232477977871895
1758301355373405200,10.4224052734375,-0.43765079975128174,-0.5063480138778687,0.04842438921332359
1758301355383379200,10.432379150390625,-0.3128155469894409,-0.4578182101249695,0.04872104153037071
1758301355393353200,10.442353271484375,-0.21144233644008636,-0.41900956630706787,0.06063069775700569
1758301355403327200,10.4523271484375,-0.15401116013526917,-0.3593147397041321,0.0709366574883461
1758301355413300200,10.46230029296875,-0.12458241730928421,-0.28601548075675964,0.014026503078639507
1758301355423274200,10.472274169921874,-0.11732398718595505,-0.2101641446352005,-0.08902646601200104
1758301355433248300,10.482248291015624,-0.14000745117664337,-0.1333037167787552,-0.18147222697734833
1758301355443222300,10.49222216796875,-0.19255194067955017,-0.07209145277738571,-0.2386629283428192
1758301355453196300,10.5021962890625,-0.24094077944755554,-0.026786817237734795,-0.2399716079235077
1758301355463170300,10.51217041015625,-0.2236664742231369,0.00397135503590107,-0.22156153619289398
1758301355473143300,10.522143310546875,-0.14586462080478668,0.053099218755960464,-0.18551112711429596
1758301355483117300,10.532117431640625,-0.0736154094338417,0.09317778050899506,-0.13967113196849823
1758301355493091000,10.542091064453125,-0.030234646052122116,0.10875913500785828,-0.09917432069778442
1758301355503065000,10.552065185546875,-0.000993326073512435,0.11152825504541397,-0.0812632143497467
1758301355513039000,10.5620390625,0.02018972486257553,0.08365214616060257,-0.07623863220214844
1758301355523012000,10.57201220703125,0.03755403310060501,0.011355203576385975,-0.040987662971019745
1758301355532986000,10.581986083984376,0.06793058663606644,-0.030796775594353676,-0.0033659860491752625
1758301355542960000,10.591960205078125,0.12792283296585083,-0.033611636608839035,-0.010542339645326138
1758301355552934100,10.60193408203125,0.2102600485086441,0.003931742161512375,-0.03429773822426796
1758301355562908200,10.611908203125,0.28993821144104004,0.030118048191070557,-0.06397103518247604
1758301355572882200,10.621882080078125,0.3180326819419861,0.03103444166481495,-0.04539335146546364
1758301355582855200,10.631855224609374,0.3288215696811676,0.14006710052490234,-0.050594035536050797
1758301355592829200,10.6418291015625,0.33403095602989197,0.18093277513980865,-0.10047052055597305
1758301355602803200,10.65180322265625,0.2670630216598511,0.1458299607038498,-0.1462608277797699
1758301355612777200,10.661777099609376,0.1201913058757782,0.1242612823843956,-0.274762362241745
1758301355622751200,10.671751220703126,-0.053370047360658646,0.030889645218849182,-0.40044379234313965
1758301355632725200,10.681725341796875,-0.10139136761426926,-0.09557082504034042,-0.37954115867614746
1758301355642698200,10.6916982421875,0.04645427316427231,-0.06553810089826584,-0.2579341232776642
1758301355652672300,10.70167236328125,0.16848456859588623,0.024569425731897354,0.0260805394500494
1758301355662646300,10.711646240234375,0.027274487540125847,0.016239700838923454,0.3307967483997345
1758301355672620300,10.721620361328124,-0.19800683856010437,0.0015457107219845057,0.5088274478912354
1758301355682594300,10.73159423828125,-0.300555557012558,0.09103122353553772,0.5726332068443298
1758301355692568300,10.741568359375,-0.256289541721344,0.172432079911232,0.5130209922790527
1758301355702541000,10.751541015625,-0.14922572672367096,0.19897063076496124,0.3901066780090332
1758301355712515000,10.76151513671875,-0.08937729150056839,0.24426594376564026,0.31537091732025146
1758301355722489000,10.771489013671875,-0.08114153891801834,0.31011494994163513,0.3273847997188568
1758301355732463000,10.781463134765625,-0.07886693626642227,0.3560350239276886,0.368393212556839
1758301355742437000,10.79143701171875,-0.05852143466472626,0.36823055148124695,0.37442266941070557
1758301355752411100,10.8014111328125,0.009557750076055527,0.3220140337944031,0.3234066069126129
1758301355762384100,10.811384033203124,0.10595167428255081,0.3058074116706848,0.24765866994857788
1758301355772358100,10.821358154296876,0.20894542336463928,0.26049238443374634,0.19697898626327515
1758301355782332200,10.831332275390626,0.2642959654331207,0.21919263899326324,0.16390207409858704
1758301355792306200,10.84130615234375,0.29411110281944275,0.15155580639839172,0.133233904838562
1758301355802280200,10.8512802734375,0.326298326253891,0.10556194186210632,0.10656723380088806
1758301355812254200,10.861254150390625,0.3590853214263916,0.08222465962171555,0.07096077501773834
1758301355822227200,10.871227294921875,0.38173550367355347,0.010254327207803726,0.04556691274046898
1758301355832201200,10.881201171875,0.41760775446891785,-0.03280019760131836,0.04967404156923294
1758301355842175200,10.89117529296875,0.44600653648376465,-0.06965937465429306,0.06850018352270126
1758301355852149200,10.901149169921876,0.478635311126709,-0.07614576816558838,0.09621010720729828
1758301355862123300,10.911123291015626,0.5242946147918701,-0.06979435682296753,0.11170018464326859
1758301355872097300,10.92109716796875,0.5644004940986633,-0.043650638312101364,0.12343380600214005
1758301355882070300,10.9310703125,0.5989024043083191,-0.009102815762162209,0.13961225748062134
1758301355892044300,10.941044189453125,0.6125001907348633,0.03559621050953865,0.156112939119339
1758301355902018300,10.951018310546875,0.6025042533874512,0.0836336687207222,0.18417975306510925
1758301355911992300,10.960992431640625,0.5624197125434875,0.12175282090902328,0.22928091883659363
1758301355921966300,10.97096630859375,0.5047901272773743,0.14028485119342804,0.27101367712020874
1758301355931940400,10.9809404296875,0.4502238631248474,0.1557234525680542,0.28683924674987793
1758301355941913000,10.9909130859375,0.39777863025665283,0.16617245972156525,0.27674227952957153
1758301355951887000,11.00088720703125,0.3454483151435852,0.17447778582572937,0.2565414011478424
1758301355961861000,11.010861083984375,0.28528591990470886,0.17610083520412445,0.2466246336698532
1758301355971835100,11.020835205078125,0.21905367076396942,0.1867087334394455,0.23584230244159698
1758301355981809200,11.03080908203125,0.15434125065803528,0.2009679228067398,0.22325271368026733
1758301355991783200,11.040783203125,0.09420547634363174,0.1467427760362625,0.24377264082431793
1758301356001756200,11.050756103515624,0.04180605709552765,0.17917485535144806,0.2716335356235504
1758301356011730200,11.060730224609374,0.010834290646016598,0.18750521540641785,0.25902611017227173
1758301356021704200,11.0707041015625,-0.0008142096339724958,0.12868523597717285,0.2381739467382431
1758301356031678200,11.08067822265625,0.004187739919871092,0.06901098787784576,0.22906753420829773
1758301356041652200,11.09065234375,0.016017882153391838,0.018409231677651405,0.23818561434745789
1758301356051626200,11.100626220703125,0.03470368683338165,-0.02657821774482727,0.2641586363315582
1758301356061599200,11.11059912109375,0.0542132668197155,-0.02565850131213665,0.27211421728134155
1758301356071573200,11.1205732421875,0.07234726846218109,-0.0758867859840393,0.26072999835014343
1758301356081547300,11.13054736328125,0.09121529012918472,-0.11484860628843307,0.24275361001491547
1758301356091521300,11.140521240234374,0.10220083594322205,-0.14166051149368286,0.23104450106620789
1758301356101495300,11.150495361328124,0.11145306378602982,-0.15771092474460602,0.22789791226387024
1758301356111469300,11.16046923828125,0.12582749128341675,-0.15396519005298615,0.2215595841407776
1758301356121442300,11.1704423828125,0.13705138862133026,-0.15413473546504974,0.21777848899364471
1758301356131416300,11.180416259765625,0.1381502002477646,-0.15677659213542938,0.2239232063293457
1758301356141390300,11.190390380859375,0.13793021440505981,-0.1598835289478302,0.24104726314544678
1758301356151364400,11.2003642578125,0.1396852433681488,-0.1624995619058609,0.26437175273895264
1758301356161338400,11.21033837890625,0.13839717209339142,-0.17182587087154388,0.2855483889579773
1758301356171312400,11.2203125,0.12675489485263824,-0.23220905661582947,0.31244391202926636
1758301356181285000,11.23028515625,0.105927474796772,-0.16486039757728577,0.29881688952445984
1758301356191259100,11.240259033203126,0.07648409903049469,-0.16906499862670898,0.24330569803714752
1758301356201233200,11.250233154296875,0.055135831236839294,-0.13343597948551178,0.15889371931552887
1758301356211207200,11.260207275390625,0.04456521198153496,-0.10470100492238998,0.06821867823600769
1758301356221181200,11.27018115234375,0.043502647429704666,-0.07990437000989914,-0.022443635389208794
1758301356231155200,11.2801552734375,0.05207003653049469,-0.05795619636774063,-0.10560350120067596
1758301356241128200,11.290128173828125,0.06477686762809753,-0.05472980812191963,-0.17735162377357483
1758301356251102200,11.300102294921874,0.0743623822927475,-0.07353758066892624,-0.22861294448375702
1758301356261076200,11.310076171875,0.0813862755894661,-0.10746575891971588,-0.2666178345680237
1758301356271050200,11.32005029296875,0.09495189040899277,-0.15712252259254456,-0.29934144020080566
1758301356281024300,11.330024169921876,0.10447113960981369,-0.2115022838115692,-0.2938038110733032
1758301356290998300,11.339998291015625,0.12326746433973312,-0.36815473437309265,-0.1594529151916504
1758301356300972300,11.34997216796875,0.15035797655582428,-0.17126181721687317,0.023712344467639923
1758301356310945300,11.3599453125,0.14387132227420807,-0.14248156547546387,0.1602291762828827
1758301356320919300,11.369919189453125,0.13609427213668823,-0.09106148034334183,0.21513475477695465
1758301356330893300,11.379893310546874,0.13109205663204193,-0.018243201076984406,0.19811075925827026
1758301356340867300,11.389867431640624,0.11568494886159897,0.02736472710967064,0.12856818735599518
1758301356350841300,11.39984130859375,0.10775112360715866,0.02960071712732315,0.016638988628983498
1758301356360815400,11.4098154296875,0.11849025636911392,-0.034795377403497696,-0.08070717006921768
1758301356370788400,11.419788330078125,0.08978591114282608,-0.09527896344661713,-0.1236485168337822
1758301356380762400,11.429762451171875,0.012098814360797405,-0.13131126761436462,-0.1054515689611435
1758301356390736400,11.439736328125,-0.10286132246255875,-0.15463869273662567,-0.06380079686641693
1758301356400710400,11.44971044921875,-0.20675314962863922,-0.21069249510765076,-0.033449333161115646
1758301356410684400,11.459684326171875,-0.2730107307434082,-0.27394551038742065,-0.008522147312760353
1758301356420658400,11.469658447265624,-0.3190106153488159,-0.3417942523956299,0.015765424817800522
1758301356430631400,11.47963134765625,-0.31972646713256836,-0.4219801425933838,0.009202063083648682
1758301356440605400,11.48960546875,-0.2711472511291504,-0.4883310794830322,-0.022478332743048668
1758301356450579500,11.499579345703125,-0.2094828337430954,-0.537059485912323,-0.06110695004463196
1758301356460553500,11.509553466796875,-0.15240326523780823,-0.5557723045349121,-0.09028804302215576
1758301356470527500,11.519527587890625,-0.09325125813484192,-0.549721360206604,-0.10373008251190186
1758301356480501500,11.52950146484375,-0.035492490977048874,-0.5303648114204407,-0.11753711849451065
1758301356490474500,11.539474609375,0.015018886886537075,-0.4975093603134155,-0.13716141879558563
1758301356500448500,11.549448486328124,0.04740571230649948,-0.4646402895450592,-0.18409717082977295
1758301356510422500,11.559422607421874,0.06560815125703812,-0.42270004749298096,-0.26004624366760254
1758301356520396300,11.569396240234376,0.07288093864917755,-0.37820547819137573,-0.3285139501094818
1758301356530370300,11.579370361328126,0.062497273087501526,-0.3310116231441498,-0.3624247908592224
1758301356540344300,11.58934423828125,0.04168717935681343,-0.28955942392349243,-0.36588770151138306
1758301356550318300,11.599318359375,-0.009198373183608055,-0.2320636361837387,-0.35658422112464905
1758301356560291300,11.609291259765625,-0.08829664438962936,-0.15432319045066833,-0.38619264960289
1758301356570265300,11.619265380859375,-0.17807286977767944,-0.11510708928108215,-0.4703724980354309
1758301356580239400,11.6292392578125,-0.23514297604560852,-0.14783017337322235,-0.5404143929481506
1758301356590213400,11.63921337890625,-0.29096657037734985,-0.18559938669204712,-0.5653647184371948
1758301356600187400,11.6491875,-0.3561546504497528,-0.18593522906303406,-0.5349339246749878
1758301356610161400,11.659161376953126,-0.4136461615562439,-0.17076453566551208,-0.4725767970085144
1758301356620134400,11.669134521484375,-0.43328824639320374,-0.1702544093132019,-0.41661345958709717
1758301356630108400,11.6791083984375,-0.4363628625869751,-0.17468270659446716,-0.4362606704235077
1758301356640082400,11.68908251953125,-0.4278012812137604,-0.18552981317043304,-0.468639612197876
1758301356650056400,11.699056396484375,-0.4112345576286316,-0.21029135584831238,-0.47154247760772705
1758301356660030500,11.709030517578125,-0.39961710572242737,-0.23516418039798737,-0.4613226652145386
1758301356670004500,11.71900439453125,-0.40293940901756287,-0.24382370710372925,-0.4478806257247925
1758301356679978500,11.728978515625,-0.4319472908973694,-0.24644216895103455,-0.4319519102573395
1758301356689951500,11.738951416015626,-0.47591739892959595,-0.26976585388183594,-0.39750126004219055
1758301356699925500,11.748925537109375,-0.5231272578239441,-0.2895236909389496,-0.362505704164505
1758301356709899500,11.7588994140625,-0.5679642558097839,-0.37034958600997925,-0.29439881443977356
1758301356719873500,11.76887353515625,-0.5915519595146179,-0.4228702783584595,-0.20434695482254028
1758301356729847600,11.77884765625,-0.5974359512329102,-0.4162978529930115,-0.1251962035894394
1758301356739821300,11.7888212890625,-0.5684239864349365,-0.39743778109550476,-0.09017025679349899
1758301356749794300,11.798794189453124,-0.5193182229995728,-0.3529896140098572,-0.09739860892295837
1758301356759768300,11.808768310546874,-0.4630783200263977,-0.30719417333602905,-0.13227269053459167
1758301356769742300,11.818742431640626,-0.4022122919559479,-0.3091292381286621,-0.18179631233215332
1758301356779716400,11.82871630859375,-0.36805105209350586,-0.2825510501861572,-0.21167418360710144
1758301356789690400,11.8386904296875,-0.3540814518928528,-0.2535233795642853,-0.19709843397140503
1758301356799664400,11.848664306640625,-0.34874221682548523,-0.22917643189430237,-0.1404455602169037
1758301356809637400,11.858637451171875,-0.35379236936569214,-0.17543597519397736,-0.06934395432472229
1758301356819611400,11.868611328125,-0.36668872833251953,-0.1035335510969162,-0.00648855697363615
1758301356829585400,11.87858544921875,-0.3787730932235718,-0.03633560240268707,0.036309242248535156
1758301356839559400,11.888559326171874,-0.3881185054779053,0.02600758522748947,0.05139705166220665
1758301356849533400,11.898533447265624,-0.38953879475593567,0.08892982453107834,0.035290785133838654
1758301356859507200,11.908507080078126,-0.3974498510360718,0.1438453495502472,0.003997107036411762
1758301356869481200,11.918481201171875,-0.3818426728248596,0.17984436452388763,-0.033867184072732925
1758301356879454500,11.928454345703125,-0.3134530484676361,0.19786840677261353,-0.06869494915008545
1758301356889428500,11.938428466796875,-0.2698554992675781,0.198431134223938,-0.08273673057556152
1758301356899402500,11.948402587890625,-0.27023962140083313,0.1830679327249527,-0.07950135320425034
1758301356909376300,11.958376220703125,-0.26995012164115906,0.1794646680355072,-0.0914781242609024
1758301356919350300,11.968350341796874,-0.263805627822876,0.1792176514863968,-0.07831797748804092
1758301356929324300,11.97832421875,-0.2872774004936218,0.15547023713588715,-0.04594406485557556
1758301356939297500,11.988297607421876,-0.24799159169197083,0.1533818244934082,-0.016599055379629135
1758301356949271600,11.998271484375,-0.1973358690738678,0.1368340104818344,-0.011645307764410973
1758301356959245600,12.00824560546875,-0.14032939076423645,0.1248597651720047,-0.011992266401648521
1758301356969219300,12.01821923828125,-0.12179671227931976,0.1413053274154663,0.009580936282873154
1758301356979193300,12.028193359375,-0.0917152687907219,0.17427940666675568,0.01688983477652073
1758301356989167400,12.03816748046875,-0.05080804228782654,0.23441864550113678,0.007720836903899908
1758301356999141400,12.048141357421875,-0.03448868170380592,0.28725695610046387,0.002768204314634204
1758301357009114400,12.0581142578125,-0.03896119445562363,0.34737300872802734,-0.009373413398861885
1758301357019088400,12.06808837890625,-0.02590787597000599,0.4109587073326111,-0.03141197934746742
1758301357029062100,12.078062255859376,0.011653347872197628,0.4605076313018799,-0.05930140241980553
1758301357039036200,12.0880361328125,0.0698559507727623,0.5074232220649719,-0.09418810904026031
1758301357049010200,12.09801025390625,0.1440098136663437,0.5760489106178284,-0.10763707756996155
1758301357058984200,12.107984130859375,0.20418086647987366,0.596159040927887,-0.04718325287103653
1758301357068958200,12.117958251953125,0.21166487038135529,0.5885642170906067,0.027955437079072
1758301357078931500,12.127931396484374,0.1607332080602646,0.5829562544822693,-0.06458306312561035
1758301357088905200,12.1379052734375,0.10874563455581665,0.4767339527606964,-0.23886539041996002
1758301357098879200,12.147879150390626,0.1322236955165863,0.34270206093788147,-0.3320266306400299
1758301357108853200,12.157853271484376,0.24596624076366425,0.37749040126800537,-0.29858240485191345
1758301357118827300,12.1678271484375,0.2709168493747711,0.4579399824142456,-0.179297536611557
1758301357128801300,12.17780126953125,0.14249788224697113,0.4852714538574219,-0.04696933180093765
1758301357138774300,12.187774169921875,-0.04244563356041908,0.4511232376098633,-0.00597250834107399
1758301357148748300,12.197748291015625,-0.13253210484981537,0.41014623641967773,-0.0545930415391922
1758301357158722300,12.207722412109375,-0.1783604770898819,0.4380653202533722,-0.1223156526684761
1758301357168696300,12.2176962890625,-0.18061165511608124,0.5479452013969421,-0.16296347975730896
1758301357178670300,12.22767041015625,-0.1425892412662506,0.5795055031776428,-0.148854598402977
1758301357188644400,12.237644287109376,-0.11559571325778961,0.5422236919403076,-0.06518793106079102
1758301357198618400,12.247618408203126,-0.09626506268978119,0.4835614264011383,0.0833987146615982
1758301357208591400,12.25759130859375,-0.12221010774374008,0.5250188112258911,0.22927363216876984
1758301357218565400,12.2675654296875,-0.19663085043430328,0.5502462983131409,0.3328421413898468
1758301357228539400,12.277539306640625,-0.24304494261741638,0.5620526075363159,0.3957816958427429
1758301357238513200,12.28751318359375,-0.23972146213054657,0.5447220206260681,0.4150945246219635
1758301357248487200,12.297487060546874,-0.19735722243785858,0.5097044110298157,0.3906509578227997
1758301357258461200,12.307461181640624,-0.161781907081604,0.4941006600856781,0.32064831256866455
1758301357268435200,12.317435302734374,-0.10533806681632996,0.5035405158996582,0.21799200773239136
1758301357278408200,12.327408203125,0.01368079986423254,0.5017529726028442,0.09949936717748642
1758301357288382200,12.33738232421875,0.147749662399292,0.5580162405967712,-0.012935561127960682
1758301357298356200,12.347356201171875,0.27443215250968933,0.576098620891571,-0.09642638266086578
1758301357308330200,12.357330322265625,0.3830782175064087,0.6343949437141418,-0.14691592752933502
1758301357318304300,12.36730419921875,0.4810343086719513,0.6603718400001526,-0.16107839345932007
1758301357328278300,12.3772783203125,0.5439477562904358,0.6827887296676636,-0.15612570941448212
